no,Condition,ConditionSession,Trial,color of s1,color of s2,color of s3,color of s4,color of s5,color of s6,color of s7,color of s8,color of tg1,color of tg2,color of tg3,color of tg4,color of tg5,color of tg6,color of tg7,color of tg8,location 1,location 2,location 3,location 4,location 5,location 6,location 7,location 8,"matching setting (1=yes, 0=no)","response key (1=R, 0=L)",Correct,Response Time,
1,1,11,1,1,2,5,3,8,8,8,8,1,2,5,3,8,8,8,8,10,2,4,17,14,18,11,1,1,1,1,0.451,
1,1,11,2,3,7,4,6,8,8,8,8,3,7,4,6,8,8,8,8,19,2,11,18,9,8,5,17,1,1,1,0.573,
1,1,11,3,6,1,2,7,8,8,8,8,6,1,2,5,8,8,8,8,18,5,6,11,12,9,10,7,0,0,1,0.542,
1,1,11,4,4,3,2,7,8,8,8,8,4,3,2,7,8,8,8,8,20,17,5,12,10,4,2,8,1,1,1,0.446,
1,1,11,5,5,4,1,7,8,8,8,8,5,4,1,3,8,8,8,8,13,19,2,3,14,18,17,7,0,0,1,0.557,
1,1,11,6,4,6,3,5,8,8,8,8,4,6,3,5,8,8,8,8,3,15,9,10,16,6,11,4,1,1,1,0.538,
1,1,11,7,3,4,1,5,8,8,8,8,3,4,1,5,8,8,8,8,1,19,11,18,3,14,6,17,1,1,1,0.478,
1,1,11,8,3,5,6,7,8,8,8,8,3,5,6,7,8,8,8,8,3,4,12,1,5,2,16,18,1,1,1,0.548,
1,1,11,9,2,3,6,7,8,8,8,8,2,3,6,7,8,8,8,8,15,9,10,3,2,12,8,11,1,1,1,0.447,
1,1,11,10,5,6,7,2,8,8,8,8,5,6,7,4,8,8,8,8,15,19,17,18,11,12,8,20,0,0,1,0.65,
1,1,11,11,2,4,5,6,8,8,8,8,2,4,5,6,8,8,8,8,8,6,16,20,19,17,14,7,1,1,1,0.422,
1,1,11,12,4,5,7,2,8,8,8,8,4,5,7,1,8,8,8,8,6,20,13,5,12,1,14,7,0,0,1,0.549,
1,1,11,13,2,5,3,1,8,8,8,8,2,5,3,1,8,8,8,8,4,10,14,8,6,1,19,5,1,1,1,0.427,
1,1,11,14,4,2,1,6,8,8,8,8,4,2,1,6,8,8,8,8,9,13,15,12,2,17,1,6,1,0,0,0.757,
1,1,11,15,5,1,2,3,8,8,8,8,5,1,2,7,8,8,8,8,19,9,10,14,6,7,11,20,0,0,1,0.743,
1,1,11,16,1,5,2,6,8,8,8,8,1,5,2,6,8,8,8,8,5,20,13,1,7,6,15,11,1,1,1,0.532,
1,1,11,17,3,2,7,1,8,8,8,8,3,2,7,1,8,8,8,8,10,4,13,18,7,12,16,17,1,1,1,0.477,
1,1,11,18,2,1,7,5,8,8,8,8,2,1,7,5,8,8,8,8,12,3,4,14,1,16,17,19,1,1,1,0.497,
1,1,11,19,1,5,6,7,8,8,8,8,1,5,6,7,8,8,8,8,16,3,17,12,8,20,13,19,1,1,1,0.472,
1,1,11,20,2,6,4,3,8,8,8,8,2,6,4,3,8,8,8,8,20,18,2,9,8,3,12,10,1,1,1,0.719,
1,1,11,21,6,3,5,1,8,8,8,8,6,3,5,4,8,8,8,8,16,14,15,7,18,5,4,3,0,0,1,0.692,
1,1,11,22,7,6,2,3,8,8,8,8,7,6,2,4,8,8,8,8,16,8,7,2,11,17,20,15,0,0,1,0.645,
1,1,11,23,6,4,1,3,8,8,8,8,6,4,1,7,8,8,8,8,15,9,6,10,8,3,13,14,0,0,1,0.673,
1,1,11,24,4,1,6,3,8,8,8,8,4,1,6,2,8,8,8,8,16,11,4,1,9,8,10,15,0,0,1,0.633,
1,1,11,25,2,3,1,4,8,8,8,8,2,3,1,4,8,8,8,8,5,3,20,10,4,14,11,6,1,1,1,0.618,
1,1,11,26,7,4,6,1,8,8,8,8,7,4,6,5,8,8,8,8,14,1,8,15,3,10,9,20,0,0,1,0.688,
1,1,11,27,5,7,6,1,8,8,8,8,5,7,6,3,8,8,8,8,16,20,10,19,4,5,6,15,0,0,1,0.528,
1,1,11,28,4,7,2,1,8,8,8,8,4,7,2,3,8,8,8,8,10,18,11,7,5,9,14,13,0,0,1,0.559,
1,1,11,29,5,3,4,6,8,8,8,8,5,3,4,2,8,8,8,8,11,19,20,14,13,8,16,10,0,0,1,0.534,
1,1,11,30,1,4,3,2,8,8,8,8,1,4,3,2,8,8,8,8,9,7,3,16,20,11,12,8,1,1,1,0.606,
1,1,11,31,7,1,4,5,8,8,8,8,7,1,4,6,8,8,8,8,5,20,17,14,8,2,9,19,0,0,1,0.54,
1,1,11,32,7,5,3,4,8,8,8,8,7,5,3,6,8,8,8,8,15,18,7,3,12,20,11,6,0,0,1,0.569,
1,1,11,33,6,5,3,4,8,8,8,8,6,5,3,1,8,8,8,8,9,8,5,15,18,3,20,14,0,0,1,0.772,
1,1,11,34,1,7,6,5,8,8,8,8,1,7,6,5,8,8,8,8,12,19,9,16,1,4,8,5,1,1,1,0.592,
1,1,11,35,6,7,4,5,8,8,8,8,6,7,4,2,8,8,8,8,12,7,5,20,14,2,6,19,0,0,1,0.656,
1,1,11,36,7,3,1,2,8,8,8,8,7,3,1,6,8,8,8,8,14,12,5,9,7,17,18,2,0,0,1,0.597,
1,1,11,37,1,2,7,4,8,8,8,8,1,2,7,4,8,8,8,8,18,8,13,17,3,4,19,16,1,1,1,0.48,
1,1,11,38,7,2,5,6,8,8,8,8,7,2,5,1,8,8,8,8,11,13,14,9,17,7,15,20,0,0,1,0.667,
1,1,11,39,3,6,2,4,8,8,8,8,3,6,2,4,8,8,8,8,20,5,8,19,17,10,15,2,1,1,1,0.504,
1,1,11,40,5,2,3,4,8,8,8,8,5,2,3,7,8,8,8,8,12,15,3,4,1,6,19,20,0,0,1,0.543,
1,2,12,1,1,1,3,3,4,4,5,7,1,1,3,3,4,4,5,7,15,4,3,6,5,13,19,20,1,0,0,1.709,
1,2,12,2,1,2,2,3,4,5,5,6,1,2,2,3,4,5,5,6,12,6,2,7,11,14,5,15,1,1,1,0.602,
1,2,12,3,1,1,2,4,4,5,6,7,1,1,2,4,4,5,6,7,6,19,11,7,1,8,9,5,1,1,1,1.008,
1,2,12,4,1,2,2,3,3,4,5,7,6,2,2,3,3,4,5,7,14,19,2,3,4,5,12,11,0,1,0,0.839,
1,2,12,5,1,2,2,3,5,6,7,7,1,1,2,3,5,6,7,7,6,3,2,5,19,12,14,1,0,0,1,0.621,
1,2,12,6,1,1,2,2,4,5,6,7,1,1,2,2,4,5,6,7,9,20,3,10,15,17,18,6,1,1,1,0.506,
1,2,12,7,1,2,2,3,4,4,6,6,1,2,2,3,4,4,6,6,4,19,15,12,13,6,10,8,1,1,1,0.548,
1,2,12,8,1,1,2,2,3,4,5,7,1,1,2,2,3,4,5,7,6,3,18,20,9,14,13,16,1,1,1,0.524,
1,2,12,9,1,1,2,2,3,4,6,7,1,1,2,2,3,4,5,7,3,10,19,4,12,18,20,6,0,0,1,0.829,
1,2,12,10,1,2,3,4,4,5,7,7,1,2,3,4,4,6,7,7,16,13,9,6,17,14,19,3,0,0,1,1.411,
1,2,12,11,2,2,3,4,5,6,7,7,2,2,3,4,6,6,7,7,9,13,7,10,6,1,18,4,0,0,1,0.909,
1,2,12,12,1,3,4,5,5,6,6,7,2,3,4,5,5,6,6,7,20,4,15,10,8,19,14,11,0,1,0,0.526,
1,2,12,13,1,1,2,2,3,4,7,7,1,1,2,2,3,4,7,7,10,1,8,17,11,16,4,7,1,1,1,0.609,
1,2,12,14,3,3,4,4,5,6,6,7,5,3,4,4,5,6,6,7,16,3,12,11,8,19,10,1,0,1,0,1.642,
1,2,12,15,2,2,3,4,5,6,6,7,2,5,3,4,5,6,6,7,4,19,1,7,2,11,17,15,0,1,0,0.652,
1,2,12,16,1,1,2,3,3,5,5,7,1,1,2,3,3,5,5,7,14,5,8,4,11,2,12,16,1,1,1,0.583,
1,2,12,17,1,1,2,3,6,6,7,7,1,1,2,3,6,6,7,7,1,4,8,9,12,19,2,15,1,1,1,0.527,
1,2,12,18,1,1,2,3,4,6,7,7,1,1,2,3,4,6,7,7,3,1,6,13,10,11,2,8,1,1,1,0.539,
1,2,12,19,1,1,2,3,4,6,6,7,1,1,2,3,4,6,6,7,12,17,6,20,16,19,5,7,1,1,1,0.548,
1,2,12,20,1,2,4,4,5,5,7,7,1,2,3,4,5,5,7,7,4,17,13,3,1,18,16,9,0,0,1,0.755,
1,2,12,21,1,2,2,3,4,5,5,6,1,2,2,3,4,5,5,6,12,8,10,6,3,14,5,13,1,1,1,0.591,
1,2,12,22,1,2,3,4,4,5,6,6,1,2,3,4,4,5,6,6,18,14,15,3,10,13,8,5,1,1,1,0.547,
1,2,12,23,2,3,4,4,5,5,6,6,7,3,4,4,5,5,6,6,9,20,5,7,18,4,3,16,0,0,1,0.687,
1,2,12,24,1,2,3,3,4,6,6,7,1,2,3,3,5,6,6,7,10,18,20,16,9,4,11,3,0,0,1,1.305,
1,2,12,25,3,3,4,4,5,5,6,7,3,3,7,4,5,5,6,7,3,15,8,12,16,11,9,20,0,0,1,1.359,
1,2,12,26,3,4,5,5,6,6,7,7,3,4,4,5,6,6,7,7,9,13,3,14,18,7,6,4,0,1,0,0.522,
1,2,12,27,1,2,3,4,5,5,6,6,1,2,3,4,5,5,6,6,8,4,10,2,18,3,13,17,1,1,1,0.483,
1,2,12,28,1,2,3,5,5,6,6,7,1,4,3,5,5,6,6,7,2,18,12,13,8,19,9,20,0,1,0,0.488,
1,2,12,29,2,3,4,5,5,6,6,7,1,3,4,5,5,6,6,7,5,20,17,8,16,12,10,1,0,0,1,0.685,
1,2,12,30,1,2,2,3,3,4,5,7,1,2,2,3,3,4,5,7,12,18,17,7,4,20,1,5,1,1,1,0.496,
1,2,12,31,1,3,4,4,5,6,7,7,1,3,4,3,5,6,7,7,13,8,10,16,14,2,15,9,0,1,0,0.796,
1,2,12,32,1,1,2,4,5,6,6,7,1,1,2,4,5,6,6,7,14,3,16,9,7,19,6,10,1,1,1,0.487,
1,2,12,33,1,1,2,3,3,4,5,6,1,1,2,3,3,4,5,6,9,1,7,17,6,16,3,19,1,0,0,0.987,
1,2,12,34,2,3,3,4,4,5,6,7,1,3,3,4,4,5,6,7,2,8,1,6,3,19,10,20,0,0,1,0.835,
1,2,12,35,1,1,2,3,3,4,5,7,1,1,2,3,3,4,5,7,5,1,15,3,19,4,11,12,1,1,1,0.62,
1,2,12,36,1,3,4,5,5,6,7,7,1,3,4,1,5,6,7,7,18,9,5,19,13,6,17,20,0,1,0,0.781,
1,2,12,37,1,2,2,3,5,5,7,7,1,2,2,4,5,5,7,7,7,15,19,13,16,4,10,5,0,1,0,1.243,
1,2,12,38,1,2,2,3,4,6,7,7,1,2,2,3,4,5,7,7,9,5,10,13,3,7,19,15,0,0,1,0.997,
1,2,12,39,1,2,3,4,5,5,6,6,1,2,3,4,5,5,6,6,15,7,17,9,1,11,5,19,1,1,1,0.791,
1,2,12,40,1,1,3,4,5,6,7,7,1,1,3,4,5,6,7,7,4,13,9,8,2,14,7,6,1,1,1,0.457,
1,3,13,1,4,7,2,1,8,8,8,8,4,7,2,3,8,8,8,8,7,6,8,13,10,17,19,20,0,0,1,0.96,
1,3,13,2,4,1,6,3,8,8,8,8,4,1,6,2,8,8,8,8,6,12,5,18,9,4,13,3,0,0,1,0.721,
1,3,13,3,6,7,4,5,8,8,8,8,6,7,4,2,8,8,8,8,2,8,1,13,9,7,10,11,0,0,1,0.637,
1,3,13,4,5,2,3,4,8,8,8,8,5,2,3,7,8,8,8,8,10,19,20,15,8,1,14,17,0,0,1,0.705,
1,3,13,5,5,4,1,7,8,8,8,8,5,4,1,3,8,8,8,8,3,17,5,2,19,8,18,1,0,0,1,0.688,
1,3,13,6,7,4,6,1,8,8,8,8,7,4,6,5,8,8,8,8,17,16,12,6,15,11,7,8,0,0,1,0.751,
1,3,13,7,3,6,2,4,8,8,8,8,3,6,2,4,8,8,8,8,19,20,4,5,15,16,7,13,1,1,1,0.748,
1,3,13,8,2,3,6,7,8,8,8,8,2,3,6,7,8,8,8,8,17,7,19,5,13,20,15,16,1,1,1,0.852,
1,3,13,9,2,6,4,3,8,8,8,8,2,6,4,3,8,8,8,8,12,11,9,17,2,1,7,5,1,1,1,0.661,
1,3,13,10,3,2,7,1,8,8,8,8,3,2,7,1,8,8,8,8,10,15,4,9,17,14,19,8,1,1,1,0.511,
1,3,13,11,5,6,7,2,8,8,8,8,5,6,7,4,8,8,8,8,2,18,17,5,1,8,20,11,0,0,1,0.685,
1,3,13,12,7,1,4,5,8,8,8,8,7,1,4,6,8,8,8,8,14,9,6,16,20,7,19,15,0,0,1,0.69,
1,3,13,13,2,3,1,4,8,8,8,8,2,3,1,4,8,8,8,8,6,10,9,16,13,12,4,19,1,1,1,0.494,
1,3,13,14,1,7,6,5,8,8,8,8,1,7,6,5,8,8,8,8,19,12,14,16,6,1,13,20,1,1,1,0.507,
1,3,13,15,7,2,5,6,8,8,8,8,7,2,5,1,8,8,8,8,8,14,4,5,2,7,12,19,0,0,1,0.642,
1,3,13,16,1,4,3,2,8,8,8,8,1,4,3,2,8,8,8,8,19,6,13,10,8,2,3,9,1,1,1,0.614,
1,3,13,17,5,1,2,3,8,8,8,8,5,1,2,7,8,8,8,8,8,13,1,12,19,17,3,11,0,0,1,0.779,
1,3,13,18,2,1,7,5,8,8,8,8,2,1,7,5,8,8,8,8,7,20,15,13,4,3,8,11,1,1,1,0.563,
1,3,13,19,5,3,4,6,8,8,8,8,5,3,4,2,8,8,8,8,13,10,9,4,12,18,11,5,0,1,0,0.682,
1,3,13,20,1,5,6,7,8,8,8,8,1,5,6,7,8,8,8,8,12,19,14,17,10,16,9,1,1,1,1,0.505,
1,3,13,21,7,3,1,2,8,8,8,8,7,3,1,6,8,8,8,8,12,3,4,5,6,7,8,14,0,0,1,0.919,
1,3,13,22,4,2,1,6,8,8,8,8,4,2,1,6,8,8,8,8,8,9,6,11,20,13,5,12,1,1,1,0.565,
1,3,13,23,6,3,5,1,8,8,8,8,6,3,5,4,8,8,8,8,7,17,11,20,2,6,14,3,0,0,1,0.959,
1,3,13,24,3,7,4,6,8,8,8,8,3,7,4,6,8,8,8,8,1,20,4,17,14,2,7,19,1,1,1,1.015,
1,3,13,25,1,5,2,6,8,8,8,8,1,5,2,6,8,8,8,8,13,12,19,5,3,11,14,4,1,1,1,0.464,
1,3,13,26,5,7,6,1,8,8,8,8,5,7,6,3,8,8,8,8,20,4,8,16,19,2,14,7,0,0,1,0.644,
1,3,13,27,1,2,7,4,8,8,8,8,1,2,7,4,8,8,8,8,14,19,5,11,4,17,2,18,1,1,1,0.61,
1,3,13,28,7,6,2,3,8,8,8,8,7,6,2,4,8,8,8,8,3,9,17,2,1,10,7,12,0,0,1,0.636,
1,3,13,29,7,5,3,4,8,8,8,8,7,5,3,6,8,8,8,8,13,18,6,17,5,10,12,3,0,0,1,0.782,
1,3,13,30,1,2,5,3,8,8,8,8,1,2,5,3,8,8,8,8,14,2,18,9,4,5,16,7,1,1,1,1.188,
1,3,13,31,4,5,7,2,8,8,8,8,4,5,7,1,8,8,8,8,7,16,19,4,5,11,20,3,0,0,1,0.859,
1,3,13,32,3,4,1,5,8,8,8,8,3,4,1,5,8,8,8,8,10,11,17,15,16,1,19,18,1,1,1,0.57,
1,3,13,33,3,5,6,7,8,8,8,8,3,5,6,7,8,8,8,8,19,16,12,8,18,2,14,20,1,1,1,0.744,
1,3,13,34,4,3,2,7,8,8,8,8,4,3,2,7,8,8,8,8,11,20,15,10,3,5,2,12,1,0,0,1.784,
1,3,13,35,2,4,5,6,8,8,8,8,2,4,5,6,8,8,8,8,10,20,9,15,6,17,4,18,1,1,1,0.827,
1,3,13,36,6,5,3,4,8,8,8,8,6,5,3,1,8,8,8,8,2,3,17,4,20,6,5,19,0,0,1,0.814,
1,3,13,37,6,4,1,3,8,8,8,8,6,4,1,7,8,8,8,8,9,5,2,4,11,13,20,7,0,0,1,0.605,
1,3,13,38,6,1,2,7,8,8,8,8,6,1,2,5,8,8,8,8,18,20,15,3,6,12,17,5,0,0,1,0.602,
1,3,13,39,2,5,3,1,8,8,8,8,2,5,3,1,8,8,8,8,7,20,3,11,18,13,15,14,1,1,1,0.553,
1,3,13,40,4,6,3,5,8,8,8,8,4,6,3,5,8,8,8,8,20,14,7,2,10,18,5,16,1,1,1,0.577,
1,4,14,1,1,3,4,5,5,6,6,7,2,3,4,5,5,6,6,7,19,18,9,17,6,7,1,13,0,0,1,0.658,
1,4,14,2,1,2,3,4,4,5,6,6,1,2,3,4,4,5,6,6,11,10,6,8,3,15,5,2,1,1,1,0.417,
1,4,14,3,2,3,4,5,5,6,6,7,1,3,4,5,5,6,6,7,19,16,17,15,11,13,14,3,0,0,1,0.765,
1,4,14,4,1,2,3,4,5,5,6,6,1,2,3,4,5,5,6,6,20,10,12,15,1,14,7,5,1,1,1,0.495,
1,4,14,5,1,2,4,4,5,5,7,7,1,2,3,4,5,5,7,7,19,1,10,6,20,9,3,11,0,0,1,0.685,
1,4,14,6,1,2,2,3,3,4,5,7,6,2,2,3,3,4,5,7,1,4,11,8,18,10,3,12,0,1,0,0.596,
1,4,14,7,3,3,4,4,5,5,6,7,3,3,7,4,5,5,6,7,20,14,15,1,18,19,4,11,0,0,1,0.565,
1,4,14,8,1,2,2,3,4,5,5,6,1,2,2,3,4,5,5,6,16,12,19,5,17,2,1,8,1,1,1,0.664,
1,4,14,9,3,4,5,5,6,6,7,7,3,4,4,5,6,6,7,7,3,17,4,10,11,2,6,13,0,0,1,0.728,
1,4,14,10,1,3,4,4,5,6,7,7,1,3,4,3,5,6,7,7,19,20,3,18,12,2,11,17,0,0,1,0.815,
1,4,14,11,2,2,3,4,5,6,7,7,2,2,3,4,6,6,7,7,8,14,1,5,16,20,18,12,0,1,0,0.527,
1,4,14,12,1,2,2,3,3,4,5,7,1,2,2,3,3,4,5,7,4,12,19,6,20,1,5,2,1,1,1,0.62,
1,4,14,13,1,2,3,5,5,6,6,7,1,4,3,5,5,6,6,7,5,14,16,13,17,19,3,20,0,0,1,0.57,
1,4,14,14,2,2,3,4,5,6,6,7,2,5,3,4,5,6,6,7,1,12,10,16,14,7,4,9,0,0,1,0.626,
1,4,14,15,1,1,2,4,4,5,6,7,1,1,2,4,4,5,6,7,9,8,4,20,7,5,6,13,1,1,1,0.933,
1,4,14,16,1,2,3,3,4,6,6,7,1,2,3,3,5,6,6,7,6,13,9,17,10,11,19,8,0,0,1,0.671,
1,4,14,17,1,3,4,5,5,6,7,7,1,3,4,1,5,6,7,7,17,15,14,20,9,5,12,11,0,1,0,0.532,
1,4,14,18,1,1,2,3,4,6,6,7,1,1,2,3,4,6,6,7,15,14,7,18,8,3,4,9,1,1,1,0.611,
1,4,14,19,1,2,2,3,4,5,5,6,1,2,2,3,4,5,5,6,12,9,8,5,13,20,11,17,1,1,1,0.533,
1,4,14,20,1,2,3,4,4,5,7,7,1,2,3,4,4,6,7,7,8,16,5,17,4,12,11,14,0,0,1,0.571,
1,4,14,21,1,1,2,3,4,6,7,7,1,1,2,3,4,6,7,7,18,5,13,6,9,8,16,10,1,1,1,0.416,
1,4,14,22,1,1,2,3,6,6,7,7,1,1,2,3,6,6,7,7,6,10,18,7,20,16,4,1,1,1,1,0.531,
1,4,14,23,3,3,4,4,5,6,6,7,5,3,4,4,5,6,6,7,4,7,2,11,10,16,8,9,0,0,1,0.632,
1,4,14,24,1,1,2,3,3,4,5,7,1,1,2,3,3,4,5,7,6,11,10,5,9,1,3,2,1,1,1,0.542,
1,4,14,25,1,2,2,3,5,6,7,7,1,1,2,3,5,6,7,7,7,3,19,4,9,15,13,6,0,0,1,0.593,
1,4,14,26,2,3,3,4,4,5,6,7,1,3,3,4,4,5,6,7,9,13,20,6,3,16,8,18,0,0,1,0.622,
1,4,14,27,2,3,4,4,5,5,6,6,7,3,4,4,5,5,6,6,1,3,8,20,2,9,10,6,0,0,1,0.587,
1,4,14,28,1,1,2,2,3,4,7,7,1,1,2,2,3,4,7,7,17,4,10,5,9,18,8,2,1,1,1,0.612,
1,4,14,29,1,1,2,2,3,4,5,7,1,1,2,2,3,4,5,7,13,8,4,9,3,10,6,12,1,1,1,0.611,
1,4,14,30,1,2,2,3,4,6,7,7,1,2,2,3,4,5,7,7,14,10,4,18,17,13,7,20,0,1,0,0.517,
1,4,14,31,1,1,2,2,3,4,6,7,1,1,2,2,3,4,5,7,20,2,6,12,18,10,7,8,0,0,1,0.548,
1,4,14,32,1,1,2,3,3,5,5,7,1,1,2,3,3,5,5,7,7,18,12,14,11,15,13,16,1,1,1,0.507,
1,4,14,33,1,2,3,4,5,5,6,6,1,2,3,4,5,5,6,6,11,13,5,19,12,20,18,10,1,1,1,0.612,
1,4,14,34,1,2,2,3,4,4,6,6,1,2,2,3,4,4,6,6,16,13,12,6,5,14,7,4,1,0,0,0.829,
1,4,14,35,1,1,2,2,4,5,6,7,1,1,2,2,4,5,6,7,2,14,8,20,1,6,19,3,1,1,1,0.566,
1,4,14,36,1,1,2,3,3,4,5,6,1,1,2,3,3,4,5,6,2,4,5,17,7,13,10,8,1,1,1,0.626,
1,4,14,37,1,2,2,3,5,5,7,7,1,2,2,4,5,5,7,7,16,7,18,13,9,20,19,14,0,0,1,0.614,
1,4,14,38,1,1,2,4,5,6,6,7,1,1,2,4,5,6,6,7,10,14,15,2,16,19,4,8,1,1,1,0.742,
1,4,14,39,1,1,3,3,4,4,5,7,1,1,3,3,4,4,5,7,7,15,1,13,18,10,4,12,1,1,1,0.628,
1,4,14,40,1,1,3,4,5,6,7,7,1,1,3,4,5,6,7,7,11,17,16,19,18,9,6,8,1,1,1,0.6,
2,2,21,1,1,2,3,4,5,5,6,6,1,2,3,4,5,5,6,6,7,16,3,8,2,19,10,9,1,1,1,0.488,
2,2,21,2,1,2,2,3,3,4,5,7,1,2,2,3,3,4,5,7,3,16,12,5,20,8,9,14,1,1,1,1.131,
2,2,21,3,1,2,3,4,4,5,7,7,1,2,3,4,4,6,7,7,11,17,3,2,12,4,1,10,0,1,0,0.764,
2,2,21,4,3,4,5,5,6,6,7,7,3,4,4,5,6,6,7,7,17,18,19,6,11,13,4,7,0,1,0,0.549,
2,2,21,5,2,3,4,4,5,5,6,6,7,3,4,4,5,5,6,6,19,1,10,20,9,2,17,3,0,0,1,1.148,
2,2,21,6,1,2,3,4,5,5,6,6,1,2,3,4,5,5,6,6,3,7,16,10,19,11,12,15,1,1,1,0.693,
2,2,21,7,1,1,2,2,3,4,6,7,1,1,2,2,3,4,5,7,4,16,1,5,13,7,2,3,0,1,0,0.688,
2,2,21,8,1,1,2,4,4,5,6,7,1,1,2,4,4,5,6,7,13,18,15,14,16,2,10,5,1,1,1,0.679,
2,2,21,9,1,1,2,3,3,4,5,6,1,1,2,3,3,4,5,6,14,9,17,1,16,20,6,5,1,1,1,0.528,
2,2,21,10,1,2,2,3,3,4,5,7,6,2,2,3,3,4,5,7,18,3,7,5,2,6,11,9,0,1,0,1.092,
2,2,21,11,3,3,4,4,5,6,6,7,5,3,4,4,5,6,6,7,20,11,15,1,3,5,16,18,0,1,0,0.486,
2,2,21,12,1,2,2,3,4,4,6,6,1,2,2,3,4,4,6,6,19,16,2,10,20,13,3,8,1,0,0,0.88,
2,2,21,13,1,1,2,3,3,5,5,7,1,1,2,3,3,5,5,7,15,1,8,10,14,6,13,11,1,0,0,1.054,
2,2,21,14,1,1,2,2,3,4,7,7,1,1,2,2,3,4,7,7,12,18,15,3,6,13,10,17,1,1,1,0.738,
2,2,21,15,1,1,3,3,4,4,5,7,1,1,3,3,4,4,5,7,3,7,19,2,4,1,20,14,1,1,1,0.879,
2,2,21,16,1,2,3,3,4,6,6,7,1,2,3,3,5,6,6,7,17,18,7,8,4,16,1,3,0,0,1,1.246,
2,2,21,17,2,3,3,4,4,5,6,7,1,3,3,4,4,5,6,7,11,8,15,14,20,7,12,9,0,0,1,0.712,
2,2,21,18,1,2,2,3,4,6,7,7,1,2,2,3,4,5,7,7,16,11,10,2,5,9,19,4,0,1,0,0.849,
2,2,21,19,1,1,2,3,3,4,5,7,1,1,2,3,3,4,5,7,4,12,18,1,17,6,7,5,1,1,1,0.967,
2,2,21,20,1,1,2,2,3,4,5,7,1,1,2,2,3,4,5,7,7,9,19,14,16,1,4,12,1,1,1,1.774,
2,2,21,21,1,1,2,4,5,6,6,7,1,1,2,4,5,6,6,7,2,13,15,5,7,9,16,4,1,1,1,1.348,
2,2,21,22,1,2,3,4,4,5,6,6,1,2,3,4,4,5,6,6,19,1,13,17,16,3,8,11,1,1,1,1.051,
2,2,21,23,1,1,2,3,4,6,6,7,1,1,2,3,4,6,6,7,3,8,16,17,11,6,5,15,1,1,1,0.992,
2,2,21,24,1,1,2,3,6,6,7,7,1,1,2,3,6,6,7,7,3,18,5,4,14,2,7,17,1,1,1,0.506,
2,2,21,25,1,2,3,5,5,6,6,7,1,4,3,5,5,6,6,7,13,15,9,18,16,8,10,20,0,1,0,0.425,
2,2,21,26,1,1,2,2,4,5,6,7,1,1,2,2,4,5,6,7,16,12,3,4,7,10,20,11,1,1,1,0.691,
2,2,21,27,2,2,3,4,5,6,7,7,2,2,3,4,6,6,7,7,17,9,3,8,16,2,14,18,0,0,1,1.124,
2,2,21,28,1,2,2,3,4,5,5,6,1,2,2,3,4,5,5,6,2,7,15,18,16,4,10,14,1,0,0,0.964,
2,2,21,29,1,2,2,3,5,6,7,7,1,1,2,3,5,6,7,7,15,1,7,11,18,4,13,14,0,1,0,0.795,
2,2,21,30,1,3,4,5,5,6,6,7,2,3,4,5,5,6,6,7,3,20,6,1,5,17,13,14,0,1,0,0.853,
2,2,21,31,1,3,4,5,5,6,7,7,1,3,4,1,5,6,7,7,8,4,17,13,11,16,6,2,0,1,0,0.923,
2,2,21,32,1,1,3,4,5,6,7,7,1,1,3,4,5,6,7,7,13,12,10,6,7,2,4,1,1,1,1,1.046,
2,2,21,33,1,2,2,3,4,5,5,6,1,2,2,3,4,5,5,6,20,18,8,17,1,5,3,9,1,1,1,0.612,
2,2,21,34,1,3,4,4,5,6,7,7,1,3,4,3,5,6,7,7,19,16,6,3,9,5,18,20,0,0,1,0.56,
2,2,21,35,1,2,2,3,5,5,7,7,1,2,2,4,5,5,7,7,9,12,3,19,14,16,2,7,0,1,0,0.489,
2,2,21,36,2,2,3,4,5,6,6,7,2,5,3,4,5,6,6,7,15,1,19,17,10,5,14,6,0,0,1,0.758,
2,2,21,37,3,3,4,4,5,5,6,7,3,3,7,4,5,5,6,7,1,3,7,19,18,17,14,8,0,0,1,1.161,
2,2,21,38,1,2,4,4,5,5,7,7,1,2,3,4,5,5,7,7,6,8,3,5,4,13,14,17,0,1,0,0.728,
2,2,21,39,2,3,4,5,5,6,6,7,1,3,4,5,5,6,6,7,5,7,13,14,3,8,19,10,0,0,1,0.691,
2,2,21,40,1,1,2,3,4,6,7,7,1,1,2,3,4,6,7,7,4,9,19,10,6,7,5,8,1,1,1,0.471,
2,4,22,1,1,3,4,4,5,6,7,7,1,3,4,3,5,6,7,7,7,10,6,1,11,2,19,3,0,1,0,0.466,
2,4,22,2,1,2,2,3,5,6,7,7,1,1,2,3,5,6,7,7,19,14,4,2,18,3,11,9,0,1,0,0.415,
2,4,22,3,1,2,4,4,5,5,7,7,1,2,3,4,5,5,7,7,10,15,12,20,19,2,17,9,0,1,0,0.396,
2,4,22,4,1,2,3,5,5,6,6,7,1,4,3,5,5,6,6,7,10,19,9,7,3,1,15,18,0,1,0,0.559,
2,4,22,5,1,1,2,4,5,6,6,7,1,1,2,4,5,6,6,7,4,20,7,10,15,6,13,16,1,1,1,0.457,
2,4,22,6,1,1,2,2,3,4,7,7,1,1,2,2,3,4,7,7,19,18,8,1,4,12,15,16,1,1,1,0.395,
2,4,22,7,1,3,4,5,5,6,7,7,1,3,4,1,5,6,7,7,12,8,20,7,2,13,10,5,0,1,0,0.349,
2,4,22,8,1,2,3,4,5,5,6,6,1,2,3,4,5,5,6,6,5,15,13,3,4,6,9,20,1,1,1,0.449,
2,4,22,9,1,1,2,3,3,4,5,7,1,1,2,3,3,4,5,7,3,15,6,7,18,2,1,19,1,1,1,0.425,
2,4,22,10,1,2,3,3,4,6,6,7,1,2,3,3,5,6,6,7,13,10,14,2,1,7,18,11,0,1,0,0.364,
2,4,22,11,3,3,4,4,5,6,6,7,5,3,4,4,5,6,6,7,12,1,2,18,13,16,6,19,0,0,1,0.617,
2,4,22,12,1,1,2,3,3,4,5,6,1,1,2,3,3,4,5,6,4,5,10,16,19,7,8,6,1,0,0,0.645,
2,4,22,13,1,3,4,5,5,6,6,7,2,3,4,5,5,6,6,7,14,15,16,19,11,6,10,3,0,1,0,0.563,
2,4,22,14,1,2,2,3,4,5,5,6,1,2,2,3,4,5,5,6,12,10,17,13,18,9,7,11,1,0,0,0.773,
2,4,22,15,1,1,2,2,3,4,6,7,1,1,2,2,3,4,5,7,2,3,1,7,11,9,16,18,0,1,0,0.519,
2,4,22,16,2,2,3,4,5,6,6,7,2,5,3,4,5,6,6,7,7,12,13,6,2,4,8,5,0,0,1,0.699,
2,4,22,17,2,2,3,4,5,6,7,7,2,2,3,4,6,6,7,7,8,19,7,2,4,15,17,12,0,1,0,0.826,
2,4,22,18,1,1,2,4,4,5,6,7,1,1,2,4,4,5,6,7,17,8,10,4,19,20,12,13,1,1,1,0.474,
2,4,22,19,1,2,2,3,4,6,7,7,1,2,2,3,4,5,7,7,10,9,11,14,12,20,17,19,0,1,0,0.494,
2,4,22,20,1,1,2,2,3,4,5,7,1,1,2,2,3,4,5,7,10,14,2,9,4,20,1,8,1,1,1,0.525,
2,4,22,21,1,2,2,3,3,4,5,7,6,2,2,3,3,4,5,7,1,14,13,10,16,2,15,11,0,1,0,0.924,
2,4,22,22,1,1,3,4,5,6,7,7,1,1,3,4,5,6,7,7,7,3,15,9,8,17,5,6,1,1,1,0.536,
2,4,22,23,2,3,4,5,5,6,6,7,1,3,4,5,5,6,6,7,15,1,3,5,19,2,18,14,0,0,1,0.582,
2,4,22,24,1,1,2,2,4,5,6,7,1,1,2,2,4,5,6,7,3,10,4,12,7,17,1,11,1,1,1,1.053,
2,4,22,25,3,4,5,5,6,6,7,7,3,4,4,5,6,6,7,7,2,18,15,5,9,20,7,17,0,0,1,0.57,
2,4,22,26,1,2,3,4,4,5,7,7,1,2,3,4,4,6,7,7,13,17,3,15,6,16,9,8,0,0,1,1.094,
2,4,22,27,1,1,3,3,4,4,5,7,1,1,3,3,4,4,5,7,5,13,2,9,6,20,16,15,1,0,0,0.696,
2,4,22,28,2,3,4,4,5,5,6,6,7,3,4,4,5,5,6,6,8,15,16,10,19,11,18,2,0,0,1,0.538,
2,4,22,29,1,2,2,3,5,5,7,7,1,2,2,4,5,5,7,7,16,14,9,18,19,13,17,20,0,0,1,0.487,
2,4,22,30,2,3,3,4,4,5,6,7,1,3,3,4,4,5,6,7,4,6,20,13,19,14,18,3,0,0,1,1.57,
2,4,22,31,3,3,4,4,5,5,6,7,3,3,7,4,5,5,6,7,6,11,1,13,3,9,8,4,0,1,0,0.677,
2,4,22,32,1,2,2,3,4,4,6,6,1,2,2,3,4,4,6,6,1,12,19,9,15,16,4,3,1,1,1,0.823,
2,4,22,33,1,2,3,4,4,5,6,6,1,2,3,4,4,5,6,6,18,19,20,8,7,10,16,1,1,0,0,0.615,
2,4,22,34,1,2,3,4,5,5,6,6,1,2,3,4,5,5,6,6,2,7,13,19,9,15,6,17,1,1,1,1.147,
2,4,22,35,1,1,2,3,6,6,7,7,1,1,2,3,6,6,7,7,10,18,9,20,7,3,8,12,1,0,0,0.984,
2,4,22,36,1,2,2,3,4,5,5,6,1,2,2,3,4,5,5,6,5,4,15,1,9,18,19,12,1,1,1,0.615,
2,4,22,37,1,1,2,3,3,5,5,7,1,1,2,3,3,5,5,7,4,20,7,6,11,14,9,3,1,1,1,0.486,
2,4,22,38,1,1,2,3,4,6,7,7,1,1,2,3,4,6,7,7,10,3,8,17,5,15,6,1,1,1,1,0.546,
2,4,22,39,1,2,2,3,3,4,5,7,1,2,2,3,3,4,5,7,3,19,11,18,17,20,12,5,1,1,1,0.36,
2,4,22,40,1,1,2,3,4,6,6,7,1,1,2,3,4,6,6,7,4,2,10,16,13,14,11,1,1,1,1,0.373,
2,1,23,1,6,4,1,3,8,8,8,8,6,4,1,7,8,8,8,8,7,6,8,12,10,20,14,17,0,1,0,0.322,
2,1,23,2,4,3,2,7,8,8,8,8,4,3,2,7,8,8,8,8,11,18,20,16,3,10,1,4,1,1,1,0.346,
2,1,23,3,5,3,4,6,8,8,8,8,5,3,4,2,8,8,8,8,5,9,3,11,8,12,16,19,0,1,0,0.955,
2,1,23,4,5,6,7,2,8,8,8,8,5,6,7,4,8,8,8,8,11,7,1,2,14,12,19,9,0,1,0,0.661,
2,1,23,5,5,4,1,7,8,8,8,8,5,4,1,3,8,8,8,8,5,2,18,8,12,6,11,4,0,1,0,0.565,
2,1,23,6,7,4,6,1,8,8,8,8,7,4,6,5,8,8,8,8,8,17,5,12,10,20,4,2,0,1,0,1.211,
2,1,23,7,7,2,5,6,8,8,8,8,7,2,5,1,8,8,8,8,20,17,7,12,15,3,11,8,0,0,1,0.524,
2,1,23,8,4,7,2,1,8,8,8,8,4,7,2,3,8,8,8,8,16,20,14,2,5,12,18,1,0,0,1,0.703,
2,1,23,9,3,4,1,5,8,8,8,8,3,4,1,5,8,8,8,8,17,1,9,19,3,4,13,15,1,1,1,0.379,
2,1,23,10,2,5,3,1,8,8,8,8,2,5,3,1,8,8,8,8,1,6,7,2,12,18,19,9,1,1,1,0.638,
2,1,23,11,7,6,2,3,8,8,8,8,7,6,2,4,8,8,8,8,14,4,17,3,2,8,16,10,0,0,1,0.802,
2,1,23,12,1,2,7,4,8,8,8,8,1,2,7,4,8,8,8,8,12,8,3,18,5,10,13,20,1,0,0,0.481,
2,1,23,13,1,2,5,3,8,8,8,8,1,2,5,3,8,8,8,8,14,10,17,12,13,11,18,19,1,1,1,0.985,
2,1,23,14,6,7,4,5,8,8,8,8,6,7,4,2,8,8,8,8,1,17,6,13,5,12,19,3,0,0,1,0.725,
2,1,23,15,4,2,1,6,8,8,8,8,4,2,1,6,8,8,8,8,17,10,3,16,14,15,20,9,1,0,0,0.76,
2,1,23,16,2,4,5,6,8,8,8,8,2,4,5,6,8,8,8,8,16,13,20,12,6,9,1,19,1,1,1,0.555,
2,1,23,17,3,7,4,6,8,8,8,8,3,7,4,6,8,8,8,8,10,1,20,8,5,4,11,6,1,1,1,0.649,
2,1,23,18,1,7,6,5,8,8,8,8,1,7,6,5,8,8,8,8,15,13,10,17,3,6,16,11,1,1,1,0.815,
2,1,23,19,2,6,4,3,8,8,8,8,2,6,4,3,8,8,8,8,15,7,14,19,17,12,18,16,1,1,1,0.583,
2,1,23,20,4,6,3,5,8,8,8,8,4,6,3,5,8,8,8,8,8,7,12,11,20,13,1,16,1,1,1,0.322,
2,1,23,21,7,3,1,2,8,8,8,8,7,3,1,6,8,8,8,8,8,17,9,11,18,15,13,5,0,0,1,0.58,
2,1,23,22,4,5,7,2,8,8,8,8,4,5,7,1,8,8,8,8,11,15,3,2,19,14,18,1,0,1,0,0.441,
2,1,23,23,2,3,6,7,8,8,8,8,2,3,6,7,8,8,8,8,11,18,6,7,14,2,5,16,1,1,1,0.473,
2,1,23,24,6,1,2,7,8,8,8,8,6,1,2,5,8,8,8,8,15,11,7,18,17,10,9,4,0,1,0,0.467,
2,1,23,25,5,2,3,4,8,8,8,8,5,2,3,7,8,8,8,8,15,11,7,18,17,6,8,5,0,1,0,0.376,
2,1,23,26,7,1,4,5,8,8,8,8,7,1,4,6,8,8,8,8,15,4,12,7,6,5,16,18,0,1,0,0.686,
2,1,23,27,4,1,6,3,8,8,8,8,4,1,6,2,8,8,8,8,9,17,14,2,19,8,13,3,0,0,1,0.667,
2,1,23,28,5,7,6,1,8,8,8,8,5,7,6,3,8,8,8,8,12,14,5,4,7,10,20,3,0,0,1,0.626,
2,1,23,29,5,1,2,3,8,8,8,8,5,1,2,7,8,8,8,8,19,7,11,15,8,1,17,18,0,1,0,0.536,
2,1,23,30,2,1,7,5,8,8,8,8,2,1,7,5,8,8,8,8,15,18,19,16,7,11,6,5,1,0,0,0.526,
2,1,23,31,3,5,6,7,8,8,8,8,3,5,6,7,8,8,8,8,13,7,20,5,2,16,14,1,1,1,1,0.525,
2,1,23,32,1,5,2,6,8,8,8,8,1,5,2,6,8,8,8,8,5,7,6,17,4,3,19,14,1,0,0,0.635,
2,1,23,33,7,5,3,4,8,8,8,8,7,5,3,6,8,8,8,8,2,5,18,4,17,11,10,19,0,0,1,0.49,
2,1,23,34,3,2,7,1,8,8,8,8,3,2,7,1,8,8,8,8,9,8,16,18,19,11,10,6,1,1,1,0.843,
2,1,23,35,1,4,3,2,8,8,8,8,1,4,3,2,8,8,8,8,6,19,1,12,17,10,15,7,1,0,0,0.57,
2,1,23,36,3,6,2,4,8,8,8,8,3,6,2,4,8,8,8,8,13,17,16,1,19,8,3,6,1,0,0,0.458,
2,1,23,37,6,3,5,1,8,8,8,8,6,3,5,4,8,8,8,8,8,4,2,1,5,19,10,11,0,0,1,0.39,
2,1,23,38,1,5,6,7,8,8,8,8,1,5,6,7,8,8,8,8,19,7,8,20,6,3,17,15,1,0,0,0.434,
2,1,23,39,2,3,1,4,8,8,8,8,2,3,1,4,8,8,8,8,1,14,4,2,11,18,8,16,1,1,1,0.625,
2,1,23,40,6,5,3,4,8,8,8,8,6,5,3,1,8,8,8,8,14,4,13,17,10,7,11,15,0,0,1,0.543,
2,3,24,1,3,2,7,1,8,8,8,8,3,2,7,1,8,8,8,8,11,18,1,8,7,14,10,16,1,1,1,0.463,
2,3,24,2,3,7,4,6,8,8,8,8,3,7,4,6,8,8,8,8,11,15,3,12,13,9,18,6,1,1,1,0.534,
2,3,24,3,6,5,3,4,8,8,8,8,6,5,3,1,8,8,8,8,19,2,20,16,15,5,7,8,0,1,0,0.839,
2,3,24,4,7,2,5,6,8,8,8,8,7,2,5,1,8,8,8,8,20,3,14,2,10,1,4,9,0,0,1,0.71,
2,3,24,5,6,4,1,3,8,8,8,8,6,4,1,7,8,8,8,8,2,6,9,13,16,3,4,8,0,0,1,0.81,
2,3,24,6,4,3,2,7,8,8,8,8,4,3,2,7,8,8,8,8,2,4,16,12,11,10,7,5,1,1,1,0.623,
2,3,24,7,6,7,4,5,8,8,8,8,6,7,4,2,8,8,8,8,3,8,2,19,20,5,16,1,0,1,0,0.437,
2,3,24,8,2,6,4,3,8,8,8,8,2,6,4,3,8,8,8,8,12,1,2,15,6,14,4,3,1,1,1,0.692,
2,3,24,9,6,3,5,1,8,8,8,8,6,3,5,4,8,8,8,8,6,11,4,3,14,10,12,17,0,1,0,0.947,
2,3,24,10,1,2,7,4,8,8,8,8,1,2,7,4,8,8,8,8,2,1,14,3,15,9,10,13,1,1,1,0.608,
2,3,24,11,4,5,7,2,8,8,8,8,4,5,7,1,8,8,8,8,15,3,11,17,6,16,10,18,0,0,1,0.74,
2,3,24,12,5,7,6,1,8,8,8,8,5,7,6,3,8,8,8,8,8,2,4,5,3,12,13,10,0,0,1,0.892,
2,3,24,13,5,2,3,4,8,8,8,8,5,2,3,7,8,8,8,8,8,2,4,12,10,7,18,15,0,0,1,0.765,
2,3,24,14,3,5,6,7,8,8,8,8,3,5,6,7,8,8,8,8,18,10,7,3,15,5,2,1,1,0,0,0.481,
2,3,24,15,6,1,2,7,8,8,8,8,6,1,2,5,8,8,8,8,13,4,3,18,20,15,14,9,0,0,1,0.862,
2,3,24,16,4,2,1,6,8,8,8,8,4,2,1,6,8,8,8,8,5,15,9,4,17,14,12,19,1,1,1,0.788,
2,3,24,17,1,5,2,6,8,8,8,8,1,5,2,6,8,8,8,8,15,8,10,13,20,14,6,11,1,1,1,0.786,
2,3,24,18,4,6,3,5,8,8,8,8,4,6,3,5,8,8,8,8,8,2,16,14,7,17,15,19,1,1,1,1.006,
2,3,24,19,5,3,4,6,8,8,8,8,5,3,4,2,8,8,8,8,10,12,5,7,17,9,4,20,0,1,0,0.893,
2,3,24,20,1,7,6,5,8,8,8,8,1,7,6,5,8,8,8,8,17,5,6,19,1,18,8,7,1,1,1,0.478,
2,3,24,21,1,5,6,7,8,8,8,8,1,5,6,7,8,8,8,8,1,7,8,17,4,15,19,14,1,1,1,0.662,
2,3,24,22,1,2,5,3,8,8,8,8,1,2,5,3,8,8,8,8,16,3,13,6,11,9,4,19,1,1,1,0.539,
2,3,24,23,4,1,6,3,8,8,8,8,4,1,6,2,8,8,8,8,8,12,16,17,9,18,3,4,0,1,0,0.622,
2,3,24,24,4,7,2,1,8,8,8,8,4,7,2,3,8,8,8,8,19,16,8,4,13,12,7,6,0,0,1,0.711,
2,3,24,25,2,3,6,7,8,8,8,8,2,3,6,7,8,8,8,8,5,18,4,15,1,3,16,17,1,0,0,0.744,
2,3,24,26,7,4,6,1,8,8,8,8,7,4,6,5,8,8,8,8,19,15,14,1,8,20,5,4,0,1,0,0.843,
2,3,24,27,5,6,7,2,8,8,8,8,5,6,7,4,8,8,8,8,4,15,20,2,3,6,13,7,0,1,0,0.638,
2,3,24,28,7,5,3,4,8,8,8,8,7,5,3,6,8,8,8,8,18,19,15,4,14,16,10,9,0,1,0,0.512,
2,3,24,29,7,3,1,2,8,8,8,8,7,3,1,6,8,8,8,8,3,10,14,2,19,15,20,17,0,1,0,0.526,
2,3,24,30,7,1,4,5,8,8,8,8,7,1,4,6,8,8,8,8,9,2,6,18,1,14,11,4,0,0,1,1.066,
2,3,24,31,2,1,7,5,8,8,8,8,2,1,7,5,8,8,8,8,15,19,12,6,4,11,16,2,1,1,1,0.821,
2,3,24,32,5,1,2,3,8,8,8,8,5,1,2,7,8,8,8,8,6,16,14,7,13,1,15,12,0,0,1,0.648,
2,3,24,33,7,6,2,3,8,8,8,8,7,6,2,4,8,8,8,8,19,9,15,7,4,17,18,5,0,0,1,0.646,
2,3,24,34,3,4,1,5,8,8,8,8,3,4,1,5,8,8,8,8,1,19,13,17,9,8,14,12,1,1,1,0.702,
2,3,24,35,5,4,1,7,8,8,8,8,5,4,1,3,8,8,8,8,10,14,1,8,17,18,4,20,0,1,0,0.941,
2,3,24,36,3,6,2,4,8,8,8,8,3,6,2,4,8,8,8,8,13,16,5,11,6,3,8,12,1,1,1,0.421,
2,3,24,37,2,5,3,1,8,8,8,8,2,5,3,1,8,8,8,8,4,11,19,3,18,16,9,6,1,1,1,0.537,
2,3,24,38,2,3,1,4,8,8,8,8,2,3,1,4,8,8,8,8,9,3,11,12,6,13,18,15,1,1,1,0.639,
2,3,24,39,2,4,5,6,8,8,8,8,2,4,5,6,8,8,8,8,12,9,16,13,4,10,2,20,1,1,1,0.569,
2,3,24,40,1,4,3,2,8,8,8,8,1,4,3,2,8,8,8,8,12,14,3,20,1,16,15,13,1,0,0,1.036,
3,3,31,1,7,3,1,2,8,8,8,8,7,3,1,6,8,8,8,8,20,9,4,18,6,15,12,3,0,1,0,1.185,
3,3,31,2,2,4,5,6,8,8,8,8,2,4,5,6,8,8,8,8,1,16,12,6,14,10,4,18,1,1,1,0.666,
3,3,31,3,4,1,6,3,8,8,8,8,4,1,6,2,8,8,8,8,6,17,19,18,15,12,3,11,0,0,1,0.771,
3,3,31,4,6,1,2,7,8,8,8,8,6,1,2,5,8,8,8,8,8,10,20,2,6,15,9,3,0,0,1,0.867,
3,3,31,5,5,6,7,2,8,8,8,8,5,6,7,4,8,8,8,8,5,15,3,14,18,6,19,8,0,0,1,0.855,
3,3,31,6,5,3,4,6,8,8,8,8,5,3,4,2,8,8,8,8,19,18,4,10,17,11,20,9,0,0,1,0.755,
3,3,31,7,7,5,3,4,8,8,8,8,7,5,3,6,8,8,8,8,3,18,7,20,2,10,15,1,0,0,1,0.996,
3,3,31,8,4,7,2,1,8,8,8,8,4,7,2,3,8,8,8,8,16,3,6,17,13,18,14,4,0,1,0,0.751,
3,3,31,9,7,2,5,6,8,8,8,8,7,2,5,1,8,8,8,8,14,1,10,8,3,18,11,4,0,0,1,0.67,
3,3,31,10,7,6,2,3,8,8,8,8,7,6,2,4,8,8,8,8,7,6,20,10,15,11,5,3,0,0,1,0.955,
3,3,31,11,7,4,6,1,8,8,8,8,7,4,6,5,8,8,8,8,11,17,10,2,14,8,13,3,0,0,1,0.794,
3,3,31,12,3,6,2,4,8,8,8,8,3,6,2,4,8,8,8,8,1,8,4,3,13,11,7,12,1,1,1,1.052,
3,3,31,13,4,2,1,6,8,8,8,8,4,2,1,6,8,8,8,8,12,5,10,4,8,16,18,11,1,1,1,0.601,
3,3,31,14,1,5,6,7,8,8,8,8,1,5,6,7,8,8,8,8,1,14,13,5,11,6,4,15,1,1,1,0.59,
3,3,31,15,3,5,6,7,8,8,8,8,3,5,6,7,8,8,8,8,10,17,9,15,2,4,7,11,1,0,0,1.808,
3,3,31,16,4,5,7,2,8,8,8,8,4,5,7,1,8,8,8,8,20,14,11,13,16,7,18,8,0,1,0,1.123,
3,3,31,17,2,1,7,5,8,8,8,8,2,1,7,5,8,8,8,8,14,10,17,9,18,20,8,12,1,1,1,1.018,
3,3,31,18,6,7,4,5,8,8,8,8,6,7,4,2,8,8,8,8,2,6,8,15,13,12,16,20,0,0,1,2.132,
3,3,31,19,4,3,2,7,8,8,8,8,4,3,2,7,8,8,8,8,3,20,11,7,6,5,4,8,1,1,1,1.227,
3,3,31,20,5,4,1,7,8,8,8,8,5,4,1,3,8,8,8,8,19,8,15,16,6,9,11,13,0,0,1,1.08,
3,3,31,21,2,5,3,1,8,8,8,8,2,5,3,1,8,8,8,8,16,19,11,8,4,14,9,10,1,1,1,0.981,
3,3,31,22,1,4,3,2,8,8,8,8,1,4,3,2,8,8,8,8,13,3,4,6,7,20,9,19,1,1,1,0.961,
3,3,31,23,2,3,6,7,8,8,8,8,2,3,6,7,8,8,8,8,7,17,19,13,8,20,1,11,1,1,1,0.947,
3,3,31,24,5,2,3,4,8,8,8,8,5,2,3,7,8,8,8,8,20,18,8,9,5,14,2,16,0,0,1,0.831,
3,3,31,25,1,7,6,5,8,8,8,8,1,7,6,5,8,8,8,8,14,6,8,15,5,2,3,4,1,1,1,0.556,
3,3,31,26,1,2,7,4,8,8,8,8,1,2,7,4,8,8,8,8,8,20,12,19,7,17,3,15,1,1,1,0.722,
3,3,31,27,6,4,1,3,8,8,8,8,6,4,1,7,8,8,8,8,14,18,6,2,20,12,4,11,0,1,0,0.748,
3,3,31,28,7,1,4,5,8,8,8,8,7,1,4,6,8,8,8,8,1,16,2,11,17,14,18,19,0,1,0,0.514,
3,3,31,29,5,7,6,1,8,8,8,8,5,7,6,3,8,8,8,8,13,18,16,17,8,20,3,6,0,0,1,0.747,
3,3,31,30,3,2,7,1,8,8,8,8,3,2,7,1,8,8,8,8,2,7,15,13,12,3,20,9,1,1,1,0.739,
3,3,31,31,1,2,5,3,8,8,8,8,1,2,5,3,8,8,8,8,10,13,5,18,17,4,19,15,1,1,1,0.843,
3,3,31,32,1,5,2,6,8,8,8,8,1,5,2,6,8,8,8,8,7,11,1,15,19,18,3,6,1,1,1,0.715,
3,3,31,33,3,4,1,5,8,8,8,8,3,4,1,5,8,8,8,8,19,12,10,4,3,8,15,6,1,0,0,1.277,
3,3,31,34,2,6,4,3,8,8,8,8,2,6,4,3,8,8,8,8,15,18,17,12,10,5,3,14,1,1,1,1.344,
3,3,31,35,6,3,5,1,8,8,8,8,6,3,5,4,8,8,8,8,11,17,20,9,6,3,5,1,0,0,1,0.963,
3,3,31,36,6,5,3,4,8,8,8,8,6,5,3,1,8,8,8,8,20,1,18,11,6,10,9,16,0,0,1,1.237,
3,3,31,37,2,3,1,4,8,8,8,8,2,3,1,4,8,8,8,8,14,11,5,8,3,17,6,20,1,1,1,0.666,
3,3,31,38,5,1,2,3,8,8,8,8,5,1,2,7,8,8,8,8,12,20,17,4,6,19,10,13,0,0,1,1.002,
3,3,31,39,4,6,3,5,8,8,8,8,4,6,3,5,8,8,8,8,8,11,10,12,2,15,3,17,1,1,1,0.798,
3,3,31,40,3,7,4,6,8,8,8,8,3,7,4,6,8,8,8,8,11,14,18,7,6,8,17,4,1,1,1,0.528,
3,1,32,1,5,3,4,6,8,8,8,8,5,3,4,2,8,8,8,8,16,18,7,4,1,14,12,13,0,1,0,0.687,
3,1,32,2,1,5,6,7,8,8,8,8,1,5,6,7,8,8,8,8,17,7,10,4,9,14,20,2,1,1,1,0.492,
3,1,32,3,3,5,6,7,8,8,8,8,3,5,6,7,8,8,8,8,10,7,13,18,17,12,14,19,1,1,1,0.863,
3,1,32,4,2,6,4,3,8,8,8,8,2,6,4,3,8,8,8,8,15,19,2,14,18,4,11,12,1,1,1,0.551,
3,1,32,5,5,2,3,4,8,8,8,8,5,2,3,7,8,8,8,8,15,7,16,1,8,18,14,9,0,1,0,0.831,
3,1,32,6,2,3,6,7,8,8,8,8,2,3,6,7,8,8,8,8,9,20,12,3,1,14,6,4,1,1,1,0.731,
3,1,32,7,2,1,7,5,8,8,8,8,2,1,7,5,8,8,8,8,14,5,19,16,7,9,11,4,1,1,1,0.683,
3,1,32,8,6,5,3,4,8,8,8,8,6,5,3,1,8,8,8,8,18,20,1,19,16,14,6,3,0,0,1,0.642,
3,1,32,9,6,7,4,5,8,8,8,8,6,7,4,2,8,8,8,8,9,15,2,6,12,8,7,11,0,0,1,1.052,
3,1,32,10,1,2,7,4,8,8,8,8,1,2,7,4,8,8,8,8,8,7,11,2,15,20,3,5,1,1,1,0.825,
3,1,32,11,4,6,3,5,8,8,8,8,4,6,3,5,8,8,8,8,13,5,3,15,11,17,20,1,1,1,1,0.598,
3,1,32,12,4,3,2,7,8,8,8,8,4,3,2,7,8,8,8,8,13,4,12,11,5,16,2,7,1,1,1,0.708,
3,1,32,13,4,7,2,1,8,8,8,8,4,7,2,3,8,8,8,8,1,10,16,13,5,7,12,9,0,0,1,0.895,
3,1,32,14,7,5,3,4,8,8,8,8,7,5,3,6,8,8,8,8,9,19,8,10,3,6,16,12,0,0,1,0.965,
3,1,32,15,1,7,6,5,8,8,8,8,1,7,6,5,8,8,8,8,7,13,18,9,5,1,17,15,1,1,1,0.872,
3,1,32,16,7,3,1,2,8,8,8,8,7,3,1,6,8,8,8,8,17,19,11,7,18,1,20,3,0,1,0,0.598,
3,1,32,17,1,5,2,6,8,8,8,8,1,5,2,6,8,8,8,8,10,6,9,14,8,19,11,3,1,1,1,0.957,
3,1,32,18,3,4,1,5,8,8,8,8,3,4,1,5,8,8,8,8,9,13,6,15,1,14,2,17,1,1,1,0.836,
3,1,32,19,2,3,1,4,8,8,8,8,2,3,1,4,8,8,8,8,16,3,19,6,4,15,20,10,1,1,1,0.88,
3,1,32,20,2,5,3,1,8,8,8,8,2,5,3,1,8,8,8,8,8,6,9,3,20,10,7,18,1,1,1,0.678,
3,1,32,21,5,4,1,7,8,8,8,8,5,4,1,3,8,8,8,8,13,10,9,5,11,12,4,2,0,0,1,1.589,
3,1,32,22,7,2,5,6,8,8,8,8,7,2,5,1,8,8,8,8,15,4,16,1,2,11,7,19,0,0,1,0.683,
3,1,32,23,4,2,1,6,8,8,8,8,4,2,1,6,8,8,8,8,10,17,7,2,11,6,20,9,1,0,0,0.545,
3,1,32,24,6,4,1,3,8,8,8,8,6,4,1,7,8,8,8,8,2,7,20,19,16,10,4,12,0,0,1,0.874,
3,1,32,25,7,6,2,3,8,8,8,8,7,6,2,4,8,8,8,8,3,12,4,18,15,20,19,17,0,0,1,1.025,
3,1,32,26,7,4,6,1,8,8,8,8,7,4,6,5,8,8,8,8,1,2,17,4,15,16,11,7,0,1,0,1.271,
3,1,32,27,1,2,5,3,8,8,8,8,1,2,5,3,8,8,8,8,6,4,17,11,10,15,16,8,1,1,1,0.691,
3,1,32,28,7,1,4,5,8,8,8,8,7,1,4,6,8,8,8,8,17,10,5,7,9,18,11,19,0,1,0,0.883,
3,1,32,29,5,1,2,3,8,8,8,8,5,1,2,7,8,8,8,8,9,7,16,6,11,8,4,3,0,1,0,0.688,
3,1,32,30,6,1,2,7,8,8,8,8,6,1,2,5,8,8,8,8,18,1,15,12,3,11,5,6,0,1,0,1.305,
3,1,32,31,5,6,7,2,8,8,8,8,5,6,7,4,8,8,8,8,2,1,20,9,12,11,6,19,0,0,1,0.664,
3,1,32,32,3,6,2,4,8,8,8,8,3,6,2,4,8,8,8,8,20,4,13,14,16,1,6,18,1,0,0,1.789,
3,1,32,33,3,7,4,6,8,8,8,8,3,7,4,6,8,8,8,8,2,14,13,19,18,9,5,7,1,1,1,0.924,
3,1,32,34,1,4,3,2,8,8,8,8,1,4,3,2,8,8,8,8,20,16,8,6,2,3,13,1,1,1,1,0.75,
3,1,32,35,4,1,6,3,8,8,8,8,4,1,6,2,8,8,8,8,5,16,10,12,17,19,20,13,0,0,1,0.695,
3,1,32,36,3,2,7,1,8,8,8,8,3,2,7,1,8,8,8,8,20,12,1,6,8,4,3,16,1,1,1,0.709,
3,1,32,37,6,3,5,1,8,8,8,8,6,3,5,4,8,8,8,8,19,16,9,10,14,15,8,6,0,0,1,1.429,
3,1,32,38,4,5,7,2,8,8,8,8,4,5,7,1,8,8,8,8,17,20,11,5,12,13,7,18,0,0,1,0.675,
3,1,32,39,5,7,6,1,8,8,8,8,5,7,6,3,8,8,8,8,20,17,19,3,8,15,7,16,0,1,0,0.683,
3,1,32,40,2,4,5,6,8,8,8,8,2,4,5,6,8,8,8,8,1,18,16,7,11,8,14,17,1,1,1,0.946,
3,4,33,1,1,2,2,3,4,6,7,7,1,2,2,3,4,5,7,7,8,14,2,10,16,6,18,3,0,1,0,0.938,
3,4,33,2,1,2,4,4,5,5,7,7,1,2,3,4,5,5,7,7,19,2,12,17,13,5,15,1,0,0,1,0.831,
3,4,33,3,1,1,2,3,3,5,5,7,1,1,2,3,3,5,5,7,17,7,9,6,4,2,8,3,1,1,1,0.73,
3,4,33,4,1,2,2,3,3,4,5,7,6,2,2,3,3,4,5,7,20,10,19,12,16,6,15,14,0,0,1,1.417,
3,4,33,5,1,2,2,3,4,5,5,6,1,2,2,3,4,5,5,6,10,9,13,3,20,15,4,14,1,1,1,0.815,
3,4,33,6,2,3,4,5,5,6,6,7,1,3,4,5,5,6,6,7,16,6,18,4,8,20,13,11,0,1,0,1.092,
3,4,33,7,1,1,3,4,5,6,7,7,1,1,3,4,5,6,7,7,2,7,6,5,20,10,8,15,1,1,1,0.652,
3,4,33,8,1,2,3,4,4,5,6,6,1,2,3,4,4,5,6,6,16,19,7,17,10,15,14,12,1,1,1,0.712,
3,4,33,9,1,2,2,3,3,4,5,7,1,2,2,3,3,4,5,7,2,7,16,10,19,9,1,17,1,1,1,1.178,
3,4,33,10,1,2,3,4,5,5,6,6,1,2,3,4,5,5,6,6,18,12,15,7,11,16,3,19,1,1,1,1.281,
3,4,33,11,3,3,4,4,5,6,6,7,5,3,4,4,5,6,6,7,14,3,15,8,20,7,9,2,0,0,1,0.97,
3,4,33,12,2,3,4,4,5,5,6,6,7,3,4,4,5,5,6,6,15,16,19,9,13,8,14,10,0,1,0,1.532,
3,4,33,13,2,3,3,4,4,5,6,7,1,3,3,4,4,5,6,7,4,14,19,20,8,9,18,17,0,1,0,1.553,
3,4,33,14,1,1,2,3,3,4,5,6,1,1,2,3,3,4,5,6,20,11,1,15,18,10,12,7,1,1,1,1.034,
3,4,33,15,1,1,3,3,4,4,5,7,1,1,3,3,4,4,5,7,3,18,15,6,17,16,12,14,1,1,1,1.182,
3,4,33,16,1,2,3,3,4,6,6,7,1,2,3,3,5,6,6,7,18,15,10,20,12,13,7,5,0,0,1,0.71,
3,4,33,17,1,2,2,3,4,4,6,6,1,2,2,3,4,4,6,6,5,7,16,20,11,6,3,8,1,1,1,0.928,
3,4,33,18,1,1,2,4,5,6,6,7,1,1,2,4,5,6,6,7,12,6,15,11,10,3,7,5,1,1,1,0.945,
3,4,33,19,3,3,4,4,5,5,6,7,3,3,7,4,5,5,6,7,7,13,11,1,4,5,14,16,0,0,1,0.606,
3,4,33,20,2,2,3,4,5,6,7,7,2,2,3,4,6,6,7,7,5,8,20,16,9,3,19,4,0,0,1,1.381,
3,4,33,21,1,1,2,2,4,5,6,7,1,1,2,2,4,5,6,7,2,20,5,1,9,10,16,13,1,1,1,0.698,
3,4,33,22,1,1,2,3,3,4,5,7,1,1,2,3,3,4,5,7,14,5,13,8,7,6,16,4,1,1,1,1.063,
3,4,33,23,1,1,2,3,6,6,7,7,1,1,2,3,6,6,7,7,1,18,3,11,5,2,6,4,1,1,1,1.459,
3,4,33,24,1,2,3,4,4,5,7,7,1,2,3,4,4,6,7,7,10,2,9,20,12,5,15,11,0,0,1,1.436,
3,4,33,25,1,3,4,5,5,6,7,7,1,3,4,1,5,6,7,7,18,2,9,1,19,16,17,3,0,1,0,1.608,
3,4,33,26,1,2,2,3,5,6,7,7,1,1,2,3,5,6,7,7,12,6,17,3,15,18,2,16,0,0,1,1.83,
3,4,33,27,1,3,4,4,5,6,7,7,1,3,4,3,5,6,7,7,10,6,20,15,13,18,3,5,0,0,1,2.017,
3,4,33,28,1,3,4,5,5,6,6,7,2,3,4,5,5,6,6,7,14,1,11,16,3,20,17,5,0,0,1,0.958,
3,4,33,29,1,2,2,3,4,5,5,6,1,2,2,3,4,5,5,6,15,12,14,8,4,20,6,18,1,1,1,0.888,
3,4,33,30,1,2,3,5,5,6,6,7,1,4,3,5,5,6,6,7,2,10,16,17,20,1,6,4,0,1,0,1.284,
3,4,33,31,1,2,3,4,5,5,6,6,1,2,3,4,5,5,6,6,8,20,4,10,3,6,17,16,1,0,0,0.698,
3,4,33,32,3,4,5,5,6,6,7,7,3,4,4,5,6,6,7,7,6,18,19,11,4,15,14,8,0,0,1,2.197,
3,4,33,33,1,1,2,2,3,4,7,7,1,1,2,2,3,4,7,7,15,9,2,12,5,14,7,18,1,1,1,0.847,
3,4,33,34,1,1,2,3,4,6,7,7,1,1,2,3,4,6,7,7,10,19,6,2,7,18,4,11,1,1,1,0.989,
3,4,33,35,1,1,2,2,3,4,6,7,1,1,2,2,3,4,5,7,7,13,12,1,4,3,2,5,0,0,1,0.814,
3,4,33,36,1,1,2,3,4,6,6,7,1,1,2,3,4,6,6,7,20,3,12,2,5,17,18,15,1,1,1,0.704,
3,4,33,37,1,2,2,3,5,5,7,7,1,2,2,4,5,5,7,7,11,8,10,20,4,6,9,19,0,1,0,0.94,
3,4,33,38,1,1,2,2,3,4,5,7,1,1,2,2,3,4,5,7,6,16,15,3,18,4,7,1,1,1,1,1.123,
3,4,33,39,1,1,2,4,4,5,6,7,1,1,2,4,4,5,6,7,19,11,1,20,15,3,2,5,1,1,1,0.686,
3,4,33,40,2,2,3,4,5,6,6,7,2,5,3,4,5,6,6,7,16,18,7,6,8,1,20,9,0,0,1,0.694,
3,2,34,1,1,1,2,4,4,5,6,7,1,1,2,4,4,5,6,7,14,16,10,12,5,15,18,19,1,1,1,0.64,
3,2,34,2,1,2,3,4,5,5,6,6,1,2,3,4,5,5,6,6,15,13,4,17,10,5,20,16,1,1,1,0.972,
3,2,34,3,1,1,2,3,6,6,7,7,1,1,2,3,6,6,7,7,12,3,16,17,19,9,18,8,1,1,1,0.715,
3,2,34,4,1,2,3,4,5,5,6,6,1,2,3,4,5,5,6,6,17,12,5,1,10,11,19,13,1,1,1,1.032,
3,2,34,5,1,2,2,3,4,4,6,6,1,2,2,3,4,4,6,6,16,14,9,3,11,10,18,8,1,1,1,1.417,
3,2,34,6,1,2,3,4,4,5,6,6,1,2,3,4,4,5,6,6,11,20,10,17,12,18,8,6,1,0,0,1.009,
3,2,34,7,3,3,4,4,5,6,6,7,5,3,4,4,5,6,6,7,3,11,18,6,1,17,16,19,0,0,1,1.166,
3,2,34,8,2,3,3,4,4,5,6,7,1,3,3,4,4,5,6,7,6,10,14,12,7,4,5,11,0,0,1,0.634,
3,2,34,9,1,2,3,3,4,6,6,7,1,2,3,3,5,6,6,7,8,1,7,13,9,2,20,18,0,1,0,0.652,
3,2,34,10,1,2,2,3,3,4,5,7,6,2,2,3,3,4,5,7,1,9,18,5,11,13,10,8,0,0,1,0.856,
3,2,34,11,3,3,4,4,5,5,6,7,3,3,7,4,5,5,6,7,20,10,13,1,2,18,3,7,0,1,0,0.587,
3,2,34,12,1,2,4,4,5,5,7,7,1,2,3,4,5,5,7,7,5,10,3,6,11,7,8,18,0,0,1,0.889,
3,2,34,13,1,1,3,4,5,6,7,7,1,1,3,4,5,6,7,7,14,11,20,13,17,5,7,18,1,1,1,0.784,
3,2,34,14,1,2,2,3,4,5,5,6,1,2,2,3,4,5,5,6,11,3,6,18,4,10,13,17,1,1,1,1.554,
3,2,34,15,2,2,3,4,5,6,6,7,2,5,3,4,5,6,6,7,16,3,5,20,14,11,12,19,0,0,1,1.068,
3,2,34,16,1,1,2,2,4,5,6,7,1,1,2,2,4,5,6,7,7,1,15,8,12,19,18,2,1,1,1,1.119,
3,2,34,17,1,1,2,4,5,6,6,7,1,1,2,4,5,6,6,7,6,12,9,17,18,20,16,10,1,1,1,0.952,
3,2,34,18,1,1,2,3,4,6,6,7,1,1,2,3,4,6,6,7,7,3,20,2,11,9,13,16,1,1,1,0.681,
3,2,34,19,1,1,2,3,4,6,7,7,1,1,2,3,4,6,7,7,8,6,9,16,7,4,11,1,1,1,1,0.908,
3,2,34,20,1,2,3,4,4,5,7,7,1,2,3,4,4,6,7,7,5,11,4,17,10,7,16,20,0,0,1,1.557,
3,2,34,21,1,1,2,2,3,4,6,7,1,1,2,2,3,4,5,7,3,14,7,8,17,15,4,19,0,1,0,1.31,
3,2,34,22,2,3,4,4,5,5,6,6,7,3,4,4,5,5,6,6,11,6,5,12,8,17,15,20,0,0,1,0.714,
3,2,34,23,1,2,2,3,5,5,7,7,1,2,2,4,5,5,7,7,16,5,3,11,18,6,19,12,0,0,1,0.932,
3,2,34,24,2,2,3,4,5,6,7,7,2,2,3,4,6,6,7,7,4,19,10,16,8,9,18,5,0,0,1,0.824,
3,2,34,25,1,1,2,3,3,4,5,6,1,1,2,3,3,4,5,6,11,15,4,20,2,5,18,19,1,1,1,0.821,
3,2,34,26,1,1,3,3,4,4,5,7,1,1,3,3,4,4,5,7,12,11,7,5,18,8,10,2,1,1,1,1.025,
3,2,34,27,2,3,4,5,5,6,6,7,1,3,4,5,5,6,6,7,1,4,16,14,8,3,5,18,0,0,1,1.44,
3,2,34,28,1,2,2,3,3,4,5,7,1,2,2,3,3,4,5,7,19,3,10,16,5,14,17,8,1,1,1,0.868,
3,2,34,29,1,2,2,3,5,6,7,7,1,1,2,3,5,6,7,7,2,13,15,11,9,8,19,6,0,1,0,1.462,
3,2,34,30,1,2,2,3,4,6,7,7,1,2,2,3,4,5,7,7,16,1,20,3,8,14,18,7,0,0,1,1.069,
3,2,34,31,1,1,2,3,3,5,5,7,1,1,2,3,3,5,5,7,8,16,14,1,17,2,20,18,1,1,1,0.704,
3,2,34,32,1,2,2,3,4,5,5,6,1,2,2,3,4,5,5,6,5,7,15,20,6,3,13,16,1,1,1,0.898,
3,2,34,33,1,1,2,3,3,4,5,7,1,1,2,3,3,4,5,7,11,12,19,9,13,5,14,17,1,1,1,0.891,
3,2,34,34,1,1,2,2,3,4,5,7,1,1,2,2,3,4,5,7,20,5,16,19,3,14,1,8,1,0,0,1.149,
3,2,34,35,1,3,4,4,5,6,7,7,1,3,4,3,5,6,7,7,17,19,20,4,10,14,1,15,0,0,1,1.088,
3,2,34,36,3,4,5,5,6,6,7,7,3,4,4,5,6,6,7,7,9,16,12,1,20,7,17,18,0,0,1,0.786,
3,2,34,37,1,3,4,5,5,6,7,7,1,3,4,1,5,6,7,7,8,18,9,5,11,4,12,16,0,0,1,1.725,
3,2,34,38,1,2,3,5,5,6,6,7,1,4,3,5,5,6,6,7,5,12,19,13,11,18,1,6,0,0,1,0.845,
3,2,34,39,1,1,2,2,3,4,7,7,1,1,2,2,3,4,7,7,20,3,10,5,13,8,9,12,1,1,1,0.635,
3,2,34,40,1,3,4,5,5,6,6,7,2,3,4,5,5,6,6,7,6,7,15,10,2,3,1,18,0,0,1,1.018,
4,4,1,1,1,3,4,5,5,6,7,7,1,3,4,1,5,6,7,7,5,13,17,18,16,20,15,2,0,1,0,0.821,
4,4,1,2,1,1,3,4,5,6,7,7,1,1,3,4,5,6,7,7,11,1,15,12,4,10,7,14,1,1,1,0.445,
4,4,1,3,2,2,3,4,5,6,6,7,2,5,3,4,5,6,6,7,4,15,9,10,1,16,18,11,0,1,0,0.495,
4,4,1,4,2,3,3,4,4,5,6,7,1,3,3,4,4,5,6,7,8,15,14,17,13,11,5,18,0,1,0,0.483,
4,4,1,5,1,1,2,3,3,4,5,6,1,1,2,3,3,4,5,6,11,5,16,15,13,2,20,3,1,1,1,0.508,
4,4,1,6,2,3,4,5,5,6,6,7,1,3,4,5,5,6,6,7,10,4,1,20,19,17,9,12,0,0,1,0.605,
4,4,1,7,1,2,3,4,5,5,6,6,1,2,3,4,5,5,6,6,19,17,5,18,11,7,1,14,1,1,1,0.414,
4,4,1,8,1,2,3,4,5,5,6,6,1,2,3,4,5,5,6,6,10,6,4,12,9,8,16,11,1,1,1,0.431,
4,4,1,9,2,2,3,4,5,6,7,7,2,2,3,4,6,6,7,7,4,19,11,17,5,20,2,7,0,1,0,0.457,
4,4,1,10,1,2,2,3,5,5,7,7,1,2,2,4,5,5,7,7,8,11,1,15,20,10,19,13,0,0,1,0.571,
4,4,1,11,1,2,2,3,3,4,5,7,1,2,2,3,3,4,5,7,1,15,18,3,6,12,17,2,1,1,1,0.464,
4,4,1,12,1,1,2,2,3,4,6,7,1,1,2,2,3,4,5,7,10,15,11,13,5,1,16,20,0,1,0,0.595,
4,4,1,13,1,1,2,2,4,5,6,7,1,1,2,2,4,5,6,7,14,12,17,5,8,9,4,13,1,1,1,0.573,
4,4,1,14,1,2,3,4,4,5,7,7,1,2,3,4,4,6,7,7,10,9,16,7,15,19,3,5,0,1,0,0.676,
4,4,1,15,3,3,4,4,5,5,6,7,3,3,7,4,5,5,6,7,3,1,15,17,12,14,6,5,0,1,0,0.649,
4,4,1,16,1,2,3,4,4,5,6,6,1,2,3,4,4,5,6,6,16,6,17,2,8,1,12,18,1,1,1,0.906,
4,4,1,17,1,1,2,2,3,4,5,7,1,1,2,2,3,4,5,7,5,7,12,4,6,3,16,2,1,0,0,0.405,
4,4,1,18,1,2,3,3,4,6,6,7,1,2,3,3,5,6,6,7,15,16,6,13,18,10,7,3,0,1,0,0.499,
4,4,1,19,1,1,2,3,4,6,6,7,1,1,2,3,4,6,6,7,18,7,8,1,19,15,17,16,1,1,1,0.506,
4,4,1,20,1,1,2,3,3,4,5,7,1,1,2,3,3,4,5,7,4,17,16,18,1,14,8,20,1,1,1,0.462,
4,4,1,21,1,1,2,3,6,6,7,7,1,1,2,3,6,6,7,7,5,6,1,10,20,4,18,3,1,1,1,0.601,
4,4,1,22,1,1,2,4,5,6,6,7,1,1,2,4,5,6,6,7,16,6,10,14,5,1,12,8,1,1,1,0.447,
4,4,1,23,1,3,4,4,5,6,7,7,1,3,4,3,5,6,7,7,13,19,2,1,11,17,7,6,0,0,1,0.701,
4,4,1,24,3,3,4,4,5,6,6,7,5,3,4,4,5,6,6,7,4,3,9,16,12,13,11,15,0,0,1,0.883,
4,4,1,25,1,2,4,4,5,5,7,7,1,2,3,4,5,5,7,7,18,19,17,1,7,5,20,2,0,0,1,0.747,
4,4,1,26,1,1,2,3,4,6,7,7,1,1,2,3,4,6,7,7,4,16,11,9,17,2,3,19,1,1,1,0.503,
4,4,1,27,3,4,5,5,6,6,7,7,3,4,4,5,6,6,7,7,15,11,20,10,4,16,3,7,0,0,1,0.752,
4,4,1,28,2,3,4,4,5,5,6,6,7,3,4,4,5,5,6,6,3,13,10,11,15,6,14,17,0,1,0,0.749,
4,4,1,29,1,2,2,3,4,5,5,6,1,2,2,3,4,5,5,6,11,12,2,13,15,18,5,1,1,1,1,0.834,
4,4,1,30,1,2,2,3,3,4,5,7,6,2,2,3,3,4,5,7,18,6,19,5,20,9,12,7,0,1,0,0.755,
4,4,1,31,1,2,2,3,5,6,7,7,1,1,2,3,5,6,7,7,12,17,15,14,2,11,8,6,0,0,1,0.761,
4,4,1,32,1,2,2,3,4,6,7,7,1,2,2,3,4,5,7,7,12,6,15,16,2,8,13,14,0,1,0,0.958,
4,4,1,33,1,1,2,4,4,5,6,7,1,1,2,4,4,5,6,7,17,10,18,12,11,5,2,8,1,1,1,0.623,
4,4,1,34,1,2,2,3,4,4,6,6,1,2,2,3,4,4,6,6,2,3,10,20,18,4,1,12,1,1,1,0.633,
4,4,1,35,1,3,4,5,5,6,6,7,2,3,4,5,5,6,6,7,6,10,12,19,11,18,17,4,0,0,1,0.933,
4,4,1,36,1,2,2,3,4,5,5,6,1,2,2,3,4,5,5,6,19,10,15,1,13,20,14,12,1,1,1,0.729,
4,4,1,37,1,1,2,3,3,5,5,7,1,1,2,3,3,5,5,7,4,1,15,10,19,6,13,20,1,1,1,0.747,
4,4,1,38,1,2,3,5,5,6,6,7,1,4,3,5,5,6,6,7,11,6,18,20,8,4,13,3,0,1,0,0.851,
4,4,1,39,1,1,2,2,3,4,7,7,1,1,2,2,3,4,7,7,8,16,14,5,19,6,17,18,1,1,1,0.642,
4,4,1,40,1,1,3,3,4,4,5,7,1,1,3,3,4,4,5,7,18,7,20,1,14,11,19,17,1,1,1,0.619,
4,3,2,1,2,6,4,3,8,8,8,8,2,6,4,3,8,8,8,8,9,11,14,8,16,18,4,2,1,1,1,0.591,
4,3,2,2,5,2,3,4,8,8,8,8,5,2,3,7,8,8,8,8,17,12,7,11,2,18,15,4,0,0,1,0.539,
4,3,2,3,1,4,3,2,8,8,8,8,1,4,3,2,8,8,8,8,8,13,20,7,15,19,12,4,1,1,1,0.487,
4,3,2,4,4,2,1,6,8,8,8,8,4,2,1,6,8,8,8,8,19,6,1,7,13,4,16,17,1,1,1,0.575,
4,3,2,5,1,5,6,7,8,8,8,8,1,5,6,7,8,8,8,8,9,13,8,6,1,10,18,17,1,1,1,0.603,
4,3,2,6,2,4,5,6,8,8,8,8,2,4,5,6,8,8,8,8,11,7,16,4,2,12,19,15,1,1,1,0.422,
4,3,2,7,1,2,5,3,8,8,8,8,1,2,5,3,8,8,8,8,10,12,3,1,16,19,17,11,1,1,1,0.581,
4,3,2,8,6,3,5,1,8,8,8,8,6,3,5,4,8,8,8,8,3,1,8,13,11,18,19,16,0,0,1,0.576,
4,3,2,9,6,1,2,7,8,8,8,8,6,1,2,5,8,8,8,8,3,17,20,19,2,18,4,9,0,0,1,1.047,
4,3,2,10,4,1,6,3,8,8,8,8,4,1,6,2,8,8,8,8,3,5,20,14,12,7,1,16,0,1,0,0.606,
4,3,2,11,6,5,3,4,8,8,8,8,6,5,3,1,8,8,8,8,1,6,11,12,5,18,19,4,0,0,1,0.726,
4,3,2,12,3,4,1,5,8,8,8,8,3,4,1,5,8,8,8,8,14,7,5,1,18,9,13,8,1,1,1,0.549,
4,3,2,13,7,2,5,6,8,8,8,8,7,2,5,1,8,8,8,8,14,15,9,4,20,6,1,5,0,0,1,0.655,
4,3,2,14,1,2,7,4,8,8,8,8,1,2,7,4,8,8,8,8,9,12,18,15,19,4,16,7,1,1,1,0.4,
4,3,2,15,5,3,4,6,8,8,8,8,5,3,4,2,8,8,8,8,7,5,15,20,13,9,10,14,0,1,0,0.465,
4,3,2,16,5,4,1,7,8,8,8,8,5,4,1,3,8,8,8,8,14,12,2,13,16,6,7,5,0,1,0,0.622,
4,3,2,17,3,7,4,6,8,8,8,8,3,7,4,6,8,8,8,8,15,13,6,1,12,11,17,16,1,0,0,0.686,
4,3,2,18,1,5,2,6,8,8,8,8,1,5,2,6,8,8,8,8,2,8,10,4,12,3,16,14,1,1,1,0.467,
4,3,2,19,6,7,4,5,8,8,8,8,6,7,4,2,8,8,8,8,7,5,2,16,11,8,14,10,0,0,1,0.835,
4,3,2,20,4,7,2,1,8,8,8,8,4,7,2,3,8,8,8,8,6,11,17,10,20,5,19,15,0,0,1,0.581,
4,3,2,21,4,5,7,2,8,8,8,8,4,5,7,1,8,8,8,8,19,10,13,9,8,1,15,16,0,0,1,0.556,
4,3,2,22,5,1,2,3,8,8,8,8,5,1,2,7,8,8,8,8,9,14,3,20,19,7,5,11,0,0,1,0.625,
4,3,2,23,7,6,2,3,8,8,8,8,7,6,2,4,8,8,8,8,6,19,1,17,14,15,20,2,0,0,1,0.656,
4,3,2,24,3,6,2,4,8,8,8,8,3,6,2,4,8,8,8,8,2,14,8,19,12,10,4,13,1,1,1,0.425,
4,3,2,25,6,4,1,3,8,8,8,8,6,4,1,7,8,8,8,8,12,2,14,6,4,19,3,16,0,0,1,0.805,
4,3,2,26,7,5,3,4,8,8,8,8,7,5,3,6,8,8,8,8,2,18,5,20,4,11,16,17,0,0,1,0.584,
4,3,2,27,3,5,6,7,8,8,8,8,3,5,6,7,8,8,8,8,12,14,4,10,9,19,20,16,1,1,1,0.58,
4,3,2,28,4,3,2,7,8,8,8,8,4,3,2,7,8,8,8,8,10,9,11,3,20,17,18,2,1,1,1,0.499,
4,3,2,29,1,7,6,5,8,8,8,8,1,7,6,5,8,8,8,8,1,17,16,2,5,6,10,13,1,1,1,0.517,
4,3,2,30,7,1,4,5,8,8,8,8,7,1,4,6,8,8,8,8,11,8,14,4,16,1,3,18,0,0,1,0.587,
4,3,2,31,5,7,6,1,8,8,8,8,5,7,6,3,8,8,8,8,8,17,20,9,1,14,12,3,0,0,1,0.739,
4,3,2,32,2,3,6,7,8,8,8,8,2,3,6,7,8,8,8,8,17,16,13,8,15,3,4,9,1,1,1,0.612,
4,3,2,33,2,3,1,4,8,8,8,8,2,3,1,4,8,8,8,8,20,18,16,7,8,10,6,4,1,0,0,0.794,
4,3,2,34,5,6,7,2,8,8,8,8,5,6,7,4,8,8,8,8,7,9,18,19,14,8,2,1,0,0,1,0.631,
4,3,2,35,4,6,3,5,8,8,8,8,4,6,3,5,8,8,8,8,18,9,16,15,1,8,4,6,1,1,1,0.534,
4,3,2,36,3,2,7,1,8,8,8,8,3,2,7,1,8,8,8,8,18,17,4,20,1,19,2,15,1,1,1,0.563,
4,3,2,37,7,4,6,1,8,8,8,8,7,4,6,5,8,8,8,8,4,1,11,16,19,6,3,12,0,0,1,0.535,
4,3,2,38,2,5,3,1,8,8,8,8,2,5,3,1,8,8,8,8,17,2,11,8,9,3,12,14,1,1,1,0.405,
4,3,2,39,7,3,1,2,8,8,8,8,7,3,1,6,8,8,8,8,1,12,17,18,2,16,4,10,0,0,1,0.677,
4,3,2,40,2,1,7,5,8,8,8,8,2,1,7,5,8,8,8,8,6,7,13,8,12,4,17,16,1,1,1,0.427,
4,2,3,1,1,2,2,3,3,4,5,7,1,2,2,3,3,4,5,7,11,2,8,5,12,9,14,4,1,1,1,0.636,
4,2,3,2,1,2,2,3,4,4,6,6,1,2,2,3,4,4,6,6,2,14,8,11,1,13,6,9,1,1,1,0.797,
4,2,3,3,1,1,2,3,4,6,7,7,1,1,2,3,4,6,7,7,14,1,4,17,20,11,6,12,1,1,1,0.949,
4,2,3,4,2,2,3,4,5,6,7,7,2,2,3,4,6,6,7,7,13,16,5,3,18,2,1,9,0,1,0,0.935,
4,2,3,5,3,3,4,4,5,5,6,7,3,3,7,4,5,5,6,7,16,10,3,17,5,9,1,7,0,0,1,0.628,
4,2,3,6,1,2,3,4,5,5,6,6,1,2,3,4,5,5,6,6,15,4,17,12,5,2,11,1,1,1,1,0.568,
4,2,3,7,1,2,2,3,3,4,5,7,6,2,2,3,3,4,5,7,6,19,17,16,20,3,2,4,0,0,1,0.671,
4,2,3,8,1,1,2,4,4,5,6,7,1,1,2,4,4,5,6,7,13,1,17,18,14,10,5,19,1,1,1,0.546,
4,2,3,9,1,1,3,3,4,4,5,7,1,1,3,3,4,4,5,7,1,6,20,8,13,10,9,17,1,1,1,0.523,
4,2,3,10,2,3,4,5,5,6,6,7,1,3,4,5,5,6,6,7,11,5,13,16,2,10,1,14,0,0,1,0.577,
4,2,3,11,1,1,2,2,3,4,6,7,1,1,2,2,3,4,5,7,15,12,16,9,7,4,17,3,0,1,0,0.499,
4,2,3,12,1,2,3,3,4,6,6,7,1,2,3,3,5,6,6,7,8,20,2,12,1,18,13,3,0,1,0,0.567,
4,2,3,13,2,2,3,4,5,6,6,7,2,5,3,4,5,6,6,7,10,15,8,3,1,6,17,13,0,0,1,0.633,
4,2,3,14,1,3,4,5,5,6,6,7,2,3,4,5,5,6,6,7,6,16,20,2,19,12,13,15,0,0,1,0.719,
4,2,3,15,1,1,2,3,6,6,7,7,1,1,2,3,6,6,7,7,13,20,6,1,4,15,18,19,1,1,1,0.81,
4,2,3,16,1,1,2,2,3,4,5,7,1,1,2,2,3,4,5,7,16,8,11,20,6,18,9,12,1,1,1,0.806,
4,2,3,17,1,2,3,4,5,5,6,6,1,2,3,4,5,5,6,6,16,18,19,2,8,14,4,9,1,1,1,0.538,
4,2,3,18,1,1,2,3,4,6,6,7,1,1,2,3,4,6,6,7,2,5,17,14,8,12,6,16,1,1,1,0.679,
4,2,3,19,1,3,4,5,5,6,7,7,1,3,4,1,5,6,7,7,8,12,2,9,1,5,19,4,0,1,0,0.512,
4,2,3,20,3,3,4,4,5,6,6,7,5,3,4,4,5,6,6,7,10,12,18,6,11,13,7,3,0,0,1,0.539,
4,2,3,21,1,2,2,3,5,6,7,7,1,1,2,3,5,6,7,7,7,17,5,14,16,12,3,6,0,1,0,0.64,
4,2,3,22,1,1,2,2,4,5,6,7,1,1,2,2,4,5,6,7,5,16,19,3,11,13,14,15,1,1,1,0.439,
4,2,3,23,2,3,3,4,4,5,6,7,1,3,3,4,4,5,6,7,5,13,10,17,19,12,6,3,0,1,0,0.737,
4,2,3,24,1,1,2,4,5,6,6,7,1,1,2,4,5,6,6,7,16,20,4,14,18,7,3,8,1,1,1,0.59,
4,2,3,25,1,1,3,4,5,6,7,7,1,1,3,4,5,6,7,7,20,19,6,17,8,16,12,13,1,1,1,0.423,
4,2,3,26,1,3,4,4,5,6,7,7,1,3,4,3,5,6,7,7,15,18,17,5,16,12,10,7,0,0,1,0.508,
4,2,3,27,3,4,5,5,6,6,7,7,3,4,4,5,6,6,7,7,5,15,9,12,4,14,20,13,0,0,1,0.454,
4,2,3,28,2,3,4,4,5,5,6,6,7,3,4,4,5,5,6,6,1,17,12,11,13,18,9,7,0,1,0,0.677,
4,2,3,29,1,1,2,2,3,4,7,7,1,1,2,2,3,4,7,7,10,6,12,20,19,4,2,16,1,1,1,0.417,
4,2,3,30,1,2,3,4,4,5,7,7,1,2,3,4,4,6,7,7,8,2,20,6,16,14,9,17,0,1,0,0.535,
4,2,3,31,1,2,3,5,5,6,6,7,1,4,3,5,5,6,6,7,6,18,2,9,7,1,15,13,0,1,0,0.475,
4,2,3,32,1,1,2,3,3,4,5,6,1,1,2,3,3,4,5,6,11,18,7,14,12,19,16,3,1,1,1,0.53,
4,2,3,33,1,2,4,4,5,5,7,7,1,2,3,4,5,5,7,7,19,13,20,16,7,5,14,1,0,0,1,0.565,
4,2,3,34,1,2,2,3,4,5,5,6,1,2,2,3,4,5,5,6,5,9,18,7,3,1,11,17,1,1,1,0.41,
4,2,3,35,1,2,3,4,4,5,6,6,1,2,3,4,4,5,6,6,16,2,4,8,15,5,12,9,1,1,1,0.493,
4,2,3,36,1,2,2,3,4,5,5,6,1,2,2,3,4,5,5,6,17,2,4,13,8,12,18,9,1,1,1,0.538,
4,2,3,37,1,2,2,3,4,6,7,7,1,2,2,3,4,5,7,7,8,19,10,14,7,11,17,2,0,1,0,0.616,
4,2,3,38,1,2,2,3,5,5,7,7,1,2,2,4,5,5,7,7,9,13,12,14,6,11,7,8,0,1,0,0.819,
4,2,3,39,1,1,2,3,3,5,5,7,1,1,2,3,3,5,5,7,15,20,12,8,2,5,3,14,1,1,1,0.458,
4,2,3,40,1,1,2,3,3,4,5,7,1,1,2,3,3,4,5,7,9,14,15,3,10,8,17,7,1,0,0,0.614,
4,1,4,1,2,3,6,7,8,8,8,8,2,3,6,7,8,8,8,8,16,7,18,6,1,5,20,10,1,1,1,0.48,
4,1,4,2,6,5,3,4,8,8,8,8,6,5,3,1,8,8,8,8,12,9,6,19,20,15,4,10,0,0,1,0.524,
4,1,4,3,1,5,6,7,8,8,8,8,1,5,6,7,8,8,8,8,14,8,16,15,17,4,12,20,1,1,1,0.427,
4,1,4,4,6,4,1,3,8,8,8,8,6,4,1,7,8,8,8,8,12,7,5,16,17,6,8,9,0,1,0,0.391,
4,1,4,5,2,6,4,3,8,8,8,8,2,6,4,3,8,8,8,8,11,17,1,6,20,3,8,16,1,1,1,0.532,
4,1,4,6,3,4,1,5,8,8,8,8,3,4,1,5,8,8,8,8,11,10,19,20,9,2,17,8,1,1,1,0.492,
4,1,4,7,6,3,5,1,8,8,8,8,6,3,5,4,8,8,8,8,5,12,16,7,4,14,8,18,0,0,1,0.501,
4,1,4,8,7,5,3,4,8,8,8,8,7,5,3,6,8,8,8,8,14,6,11,2,15,1,18,9,0,1,0,0.427,
4,1,4,9,2,1,7,5,8,8,8,8,2,1,7,5,8,8,8,8,1,3,2,8,12,19,14,18,1,1,1,0.868,
4,1,4,10,1,2,7,4,8,8,8,8,1,2,7,4,8,8,8,8,18,19,10,7,15,5,14,8,1,1,1,0.925,
4,1,4,11,5,7,6,1,8,8,8,8,5,7,6,3,8,8,8,8,3,13,7,6,12,16,19,1,0,0,1,0.548,
4,1,4,12,7,3,1,2,8,8,8,8,7,3,1,6,8,8,8,8,6,19,5,16,7,15,11,18,0,1,0,0.678,
4,1,4,13,4,2,1,6,8,8,8,8,4,2,1,6,8,8,8,8,17,15,3,4,13,8,6,10,1,1,1,0.507,
4,1,4,14,7,1,4,5,8,8,8,8,7,1,4,6,8,8,8,8,18,8,9,5,1,2,14,11,0,0,1,0.654,
4,1,4,15,1,4,3,2,8,8,8,8,1,4,3,2,8,8,8,8,20,7,2,19,17,9,11,14,1,1,1,0.709,
4,1,4,16,4,6,3,5,8,8,8,8,4,6,3,5,8,8,8,8,9,6,7,13,12,11,16,20,1,1,1,0.376,
4,1,4,17,1,2,5,3,8,8,8,8,1,2,5,3,8,8,8,8,16,18,4,9,20,19,12,17,1,1,1,0.696,
4,1,4,18,5,3,4,6,8,8,8,8,5,3,4,2,8,8,8,8,15,18,16,5,17,2,11,4,0,0,1,0.6,
4,1,4,19,3,2,7,1,8,8,8,8,3,2,7,1,8,8,8,8,1,13,20,16,6,3,5,11,1,1,1,0.497,
4,1,4,20,5,1,2,3,8,8,8,8,5,1,2,7,8,8,8,8,5,20,8,6,3,4,10,17,0,0,1,0.601,
4,1,4,21,2,3,1,4,8,8,8,8,2,3,1,4,8,8,8,8,12,8,1,4,6,16,14,15,1,1,1,0.502,
4,1,4,22,4,3,2,7,8,8,8,8,4,3,2,7,8,8,8,8,15,3,5,8,20,7,6,9,1,1,1,0.65,
4,1,4,23,2,5,3,1,8,8,8,8,2,5,3,1,8,8,8,8,20,12,1,14,18,15,4,5,1,1,1,0.557,
4,1,4,24,6,1,2,7,8,8,8,8,6,1,2,5,8,8,8,8,17,9,13,18,16,8,19,5,0,1,0,0.788,
4,1,4,25,4,5,7,2,8,8,8,8,4,5,7,1,8,8,8,8,18,13,11,17,15,20,9,19,0,0,1,0.528,
4,1,4,26,3,5,6,7,8,8,8,8,3,5,6,7,8,8,8,8,13,6,11,12,19,9,17,10,1,1,1,0.465,
4,1,4,27,1,7,6,5,8,8,8,8,1,7,6,5,8,8,8,8,4,10,2,12,15,7,3,19,1,1,1,0.43,
4,1,4,28,7,6,2,3,8,8,8,8,7,6,2,4,8,8,8,8,3,15,11,14,19,8,7,10,0,0,1,0.545,
4,1,4,29,4,1,6,3,8,8,8,8,4,1,6,2,8,8,8,8,2,12,7,5,13,19,4,11,0,1,0,0.476,
4,1,4,30,7,4,6,1,8,8,8,8,7,4,6,5,8,8,8,8,18,8,10,6,15,5,14,1,0,0,1,0.547,
4,1,4,31,7,2,5,6,8,8,8,8,7,2,5,1,8,8,8,8,14,11,1,15,10,3,16,6,0,0,1,0.585,
4,1,4,32,3,7,4,6,8,8,8,8,3,7,4,6,8,8,8,8,4,16,8,13,7,10,20,18,1,1,1,0.461,
4,1,4,33,5,6,7,2,8,8,8,8,5,6,7,4,8,8,8,8,2,13,18,4,19,20,3,15,0,0,1,0.512,
4,1,4,34,1,5,2,6,8,8,8,8,1,5,2,6,8,8,8,8,19,11,20,8,1,2,6,3,1,1,1,0.48,
4,1,4,35,3,6,2,4,8,8,8,8,3,6,2,4,8,8,8,8,4,18,5,6,16,15,10,2,1,1,1,0.425,
4,1,4,36,6,7,4,5,8,8,8,8,6,7,4,2,8,8,8,8,15,14,13,9,7,2,1,17,0,1,0,0.617,
4,1,4,37,4,7,2,1,8,8,8,8,4,7,2,3,8,8,8,8,20,10,14,8,5,13,3,6,0,0,1,0.449,
4,1,4,38,5,2,3,4,8,8,8,8,5,2,3,7,8,8,8,8,3,2,9,6,10,14,4,7,0,0,1,0.855,
4,1,4,39,5,4,1,7,8,8,8,8,5,4,1,3,8,8,8,8,16,11,6,20,1,17,4,9,0,0,1,0.766,
4,1,4,40,2,4,5,6,8,8,8,8,2,4,5,6,8,8,8,8,20,1,6,14,19,4,7,12,1,0,0,0.679,
5,1,11,1,5,1,2,3,8,8,8,8,5,1,2,7,8,8,8,8,17,4,1,19,20,9,3,6,0,0,1,1.146,
5,1,11,2,4,2,1,6,8,8,8,8,4,2,1,6,8,8,8,8,11,10,2,7,13,9,4,12,1,1,1,0.838,
5,1,11,3,3,7,4,6,8,8,8,8,3,7,4,6,8,8,8,8,13,16,5,3,15,10,19,14,1,1,1,1.061,
5,1,11,4,6,3,5,1,8,8,8,8,6,3,5,4,8,8,8,8,13,5,7,16,9,10,2,8,0,0,1,0.653,
5,1,11,5,3,5,6,7,8,8,8,8,3,5,6,7,8,8,8,8,16,14,11,12,7,2,6,1,1,1,1,0.722,
5,1,11,6,5,2,3,4,8,8,8,8,5,2,3,7,8,8,8,8,5,4,1,19,11,18,6,7,0,0,1,0.968,
5,1,11,7,1,5,6,7,8,8,8,8,1,5,6,7,8,8,8,8,11,2,5,3,7,19,8,15,1,1,1,0.85,
5,1,11,8,7,4,6,1,8,8,8,8,7,4,6,5,8,8,8,8,20,16,5,15,13,9,14,1,0,0,1,0.798,
5,1,11,9,5,3,4,6,8,8,8,8,5,3,4,2,8,8,8,8,6,2,9,3,18,17,16,14,0,0,1,1.041,
5,1,11,10,1,5,2,6,8,8,8,8,1,5,2,6,8,8,8,8,9,15,6,5,18,11,17,4,1,0,0,1.949,
5,1,11,11,5,7,6,1,8,8,8,8,5,7,6,3,8,8,8,8,3,18,15,13,16,17,10,5,0,0,1,1.003,
5,1,11,12,7,6,2,3,8,8,8,8,7,6,2,4,8,8,8,8,9,13,7,10,20,2,14,4,0,0,1,0.649,
5,1,11,13,4,7,2,1,8,8,8,8,4,7,2,3,8,8,8,8,1,6,13,12,18,11,4,9,0,0,1,0.795,
5,1,11,14,7,2,5,6,8,8,8,8,7,2,5,1,8,8,8,8,6,20,19,8,16,11,14,4,0,0,1,0.882,
5,1,11,15,1,2,7,4,8,8,8,8,1,2,7,4,8,8,8,8,19,1,14,4,10,18,8,20,1,1,1,0.692,
5,1,11,16,2,3,6,7,8,8,8,8,2,3,6,7,8,8,8,8,9,13,16,15,5,8,3,20,1,1,1,0.552,
5,1,11,17,6,1,2,7,8,8,8,8,6,1,2,5,8,8,8,8,16,4,12,20,10,13,14,15,0,0,1,0.761,
5,1,11,18,7,5,3,4,8,8,8,8,7,5,3,6,8,8,8,8,8,7,2,4,1,17,5,15,0,0,1,0.899,
5,1,11,19,4,5,7,2,8,8,8,8,4,5,7,1,8,8,8,8,4,13,18,16,20,8,12,5,0,0,1,0.594,
5,1,11,20,3,4,1,5,8,8,8,8,3,4,1,5,8,8,8,8,12,15,16,11,4,19,6,14,1,1,1,0.744,
5,1,11,21,6,5,3,4,8,8,8,8,6,5,3,1,8,8,8,8,13,6,5,11,4,10,14,15,0,0,1,0.9,
5,1,11,22,6,4,1,3,8,8,8,8,6,4,1,7,8,8,8,8,4,3,13,11,15,1,5,2,0,0,1,0.713,
5,1,11,23,2,6,4,3,8,8,8,8,2,6,4,3,8,8,8,8,6,20,16,13,5,17,1,19,1,1,1,0.629,
5,1,11,24,2,3,1,4,8,8,8,8,2,3,1,4,8,8,8,8,3,18,19,20,17,2,10,1,1,1,1,1.084,
5,1,11,25,7,3,1,2,8,8,8,8,7,3,1,6,8,8,8,8,9,1,10,13,20,4,12,6,0,0,1,1.154,
5,1,11,26,6,7,4,5,8,8,8,8,6,7,4,2,8,8,8,8,4,18,7,20,2,1,8,10,0,1,0,1.379,
5,1,11,27,3,2,7,1,8,8,8,8,3,2,7,1,8,8,8,8,13,5,10,12,19,18,1,11,1,1,1,0.778,
5,1,11,28,1,4,3,2,8,8,8,8,1,4,3,2,8,8,8,8,19,15,20,8,13,18,7,10,1,1,1,0.807,
5,1,11,29,3,6,2,4,8,8,8,8,3,6,2,4,8,8,8,8,9,16,12,7,6,15,14,11,1,1,1,0.558,
5,1,11,30,4,1,6,3,8,8,8,8,4,1,6,2,8,8,8,8,10,1,19,17,6,2,7,20,0,1,0,0.754,
5,1,11,31,4,6,3,5,8,8,8,8,4,6,3,5,8,8,8,8,6,13,18,4,14,16,10,8,1,1,1,0.699,
5,1,11,32,1,7,6,5,8,8,8,8,1,7,6,5,8,8,8,8,3,7,5,6,19,10,1,12,1,1,1,0.419,
5,1,11,33,4,3,2,7,8,8,8,8,4,3,2,7,8,8,8,8,20,18,9,15,13,4,3,17,1,1,1,0.458,
5,1,11,34,2,4,5,6,8,8,8,8,2,4,5,6,8,8,8,8,15,14,17,1,12,7,13,11,1,1,1,0.407,
5,1,11,35,2,5,3,1,8,8,8,8,2,5,3,1,8,8,8,8,16,5,9,17,20,6,2,13,1,1,1,0.656,
5,1,11,36,5,4,1,7,8,8,8,8,5,4,1,3,8,8,8,8,1,12,8,19,15,7,16,5,0,0,1,0.752,
5,1,11,37,5,6,7,2,8,8,8,8,5,6,7,4,8,8,8,8,17,7,16,18,8,13,6,14,0,0,1,1.184,
5,1,11,38,2,1,7,5,8,8,8,8,2,1,7,5,8,8,8,8,20,15,14,18,2,16,9,10,1,1,1,0.551,
5,1,11,39,1,2,5,3,8,8,8,8,1,2,5,3,8,8,8,8,9,20,5,6,12,16,15,18,1,1,1,0.656,
5,1,11,40,7,1,4,5,8,8,8,8,7,1,4,6,8,8,8,8,19,14,9,7,6,8,3,11,0,0,1,0.617,
5,2,12,1,2,2,3,4,5,6,6,7,2,5,3,4,5,6,6,7,11,13,5,9,4,1,3,18,0,1,0,0.529,
5,2,12,2,1,2,3,5,5,6,6,7,1,4,3,5,5,6,6,7,5,16,4,17,20,12,7,3,0,1,0,0.528,
5,2,12,3,1,1,2,3,3,5,5,7,1,1,2,3,3,5,5,7,6,13,2,16,10,19,18,11,1,1,1,0.633,
5,2,12,4,3,3,4,4,5,5,6,7,3,3,7,4,5,5,6,7,4,2,6,3,11,8,5,20,0,1,0,0.544,
5,2,12,5,1,1,2,4,5,6,6,7,1,1,2,4,5,6,6,7,18,7,9,14,2,13,10,20,1,1,1,0.451,
5,2,12,6,1,2,2,3,4,6,7,7,1,2,2,3,4,5,7,7,18,20,8,5,16,14,1,4,0,0,1,0.975,
5,2,12,7,1,2,3,3,4,6,6,7,1,2,3,3,5,6,6,7,8,3,17,20,4,9,10,11,0,1,0,0.945,
5,2,12,8,1,2,2,3,5,5,7,7,1,2,2,4,5,5,7,7,8,6,20,16,13,19,9,12,0,1,0,0.462,
5,2,12,9,1,2,2,3,3,4,5,7,6,2,2,3,3,4,5,7,3,20,4,9,5,12,13,1,0,1,0,0.444,
5,2,12,10,1,1,2,3,4,6,6,7,1,1,2,3,4,6,6,7,17,15,18,11,8,3,19,10,1,1,1,0.776,
5,2,12,11,1,1,2,2,4,5,6,7,1,1,2,2,4,5,6,7,19,8,12,5,13,15,9,4,1,1,1,0.412,
5,2,12,12,3,3,4,4,5,6,6,7,5,3,4,4,5,6,6,7,4,5,6,1,12,17,19,7,0,1,0,0.482,
5,2,12,13,1,1,3,4,5,6,7,7,1,1,3,4,5,6,7,7,19,14,18,11,5,7,9,4,1,1,1,0.828,
5,2,12,14,1,2,2,3,4,5,5,6,1,2,2,3,4,5,5,6,7,20,5,3,10,17,4,19,1,1,1,1.1,
5,2,12,15,1,1,2,3,3,4,5,7,1,1,2,3,3,4,5,7,4,18,13,16,11,12,10,17,1,1,1,0.526,
5,2,12,16,2,3,4,4,5,5,6,6,7,3,4,4,5,5,6,6,12,8,3,17,20,16,13,5,0,1,0,0.625,
5,2,12,17,1,1,2,4,4,5,6,7,1,1,2,4,4,5,6,7,14,15,16,19,6,5,7,3,1,1,1,0.664,
5,2,12,18,1,1,2,3,4,6,7,7,1,1,2,3,4,6,7,7,20,19,13,1,12,15,17,10,1,1,1,0.633,
5,2,12,19,1,3,4,5,5,6,6,7,2,3,4,5,5,6,6,7,12,1,5,14,4,2,11,3,0,0,1,0.939,
5,2,12,20,1,2,3,4,4,5,6,6,1,2,3,4,4,5,6,6,2,1,12,11,6,14,7,13,1,1,1,0.566,
5,2,12,21,1,1,2,3,3,4,5,6,1,1,2,3,3,4,5,6,12,5,19,10,18,17,1,14,1,1,1,0.404,
5,2,12,22,1,2,2,3,3,4,5,7,1,2,2,3,3,4,5,7,17,1,16,15,5,2,20,4,1,1,1,0.522,
5,2,12,23,1,2,3,4,5,5,6,6,1,2,3,4,5,5,6,6,16,8,3,7,1,5,13,19,1,1,1,1.937,
5,2,12,24,2,3,3,4,4,5,6,7,1,3,3,4,4,5,6,7,19,4,3,15,16,7,14,18,0,0,1,0.609,
5,2,12,25,1,1,2,2,3,4,5,7,1,1,2,2,3,4,5,7,9,2,6,16,20,18,8,5,1,1,1,0.541,
5,2,12,26,3,4,5,5,6,6,7,7,3,4,4,5,6,6,7,7,4,16,11,3,7,13,9,19,0,0,1,0.911,
5,2,12,27,1,3,4,4,5,6,7,7,1,3,4,3,5,6,7,7,5,11,20,3,4,6,17,9,0,1,0,0.412,
5,2,12,28,1,1,2,2,3,4,6,7,1,1,2,2,3,4,5,7,5,18,12,8,9,6,20,15,0,1,0,0.42,
5,2,12,29,1,2,3,4,5,5,6,6,1,2,3,4,5,5,6,6,6,11,19,7,15,12,16,18,1,1,1,0.543,
5,2,12,30,1,1,3,3,4,4,5,7,1,1,3,3,4,4,5,7,16,5,12,11,20,6,18,13,1,1,1,0.711,
5,2,12,31,1,1,2,2,3,4,7,7,1,1,2,2,3,4,7,7,9,8,19,20,15,13,7,5,1,1,1,0.448,
5,2,12,32,1,1,2,3,6,6,7,7,1,1,2,3,6,6,7,7,9,19,8,6,17,2,1,18,1,1,1,0.532,
5,2,12,33,1,2,3,4,4,5,7,7,1,2,3,4,4,6,7,7,11,19,17,20,1,18,13,8,0,0,1,0.597,
5,2,12,34,1,2,2,3,5,6,7,7,1,1,2,3,5,6,7,7,7,19,3,1,12,11,13,9,0,0,1,0.848,
5,2,12,35,2,2,3,4,5,6,7,7,2,2,3,4,6,6,7,7,4,11,7,6,12,3,17,9,0,0,1,0.906,
5,2,12,36,1,2,4,4,5,5,7,7,1,2,3,4,5,5,7,7,20,1,14,5,18,19,6,15,0,1,0,0.885,
5,2,12,37,1,2,2,3,4,4,6,6,1,2,2,3,4,4,6,6,5,6,9,18,11,3,15,8,1,1,1,0.602,
5,2,12,38,2,3,4,5,5,6,6,7,1,3,4,5,5,6,6,7,13,16,8,1,15,18,7,12,0,1,0,1.276,
5,2,12,39,1,3,4,5,5,6,7,7,1,3,4,1,5,6,7,7,14,18,4,3,19,9,2,11,0,1,0,1.115,
5,2,12,40,1,2,2,3,4,5,5,6,1,2,2,3,4,5,5,6,12,3,19,11,18,16,2,20,1,0,0,0.799,
5,3,13,1,3,5,6,7,8,8,8,8,3,5,6,7,8,8,8,8,20,13,16,6,17,2,7,9,1,1,1,4.049,
5,3,13,2,1,4,3,2,8,8,8,8,1,4,3,2,8,8,8,8,9,6,10,19,12,11,5,15,1,1,1,2.638,
5,3,13,3,1,2,7,4,8,8,8,8,1,2,7,4,8,8,8,8,16,10,4,18,20,11,12,13,1,1,1,1.024,
5,3,13,4,5,1,2,3,8,8,8,8,5,1,2,7,8,8,8,8,7,18,16,20,14,6,13,11,0,1,0,1.37,
5,3,13,5,6,5,3,4,8,8,8,8,6,5,3,1,8,8,8,8,11,19,9,5,1,20,3,7,0,0,1,0.989,
5,3,13,6,6,3,5,1,8,8,8,8,6,3,5,4,8,8,8,8,12,6,18,2,17,10,7,5,0,1,0,1.72,
5,3,13,7,4,5,7,2,8,8,8,8,4,5,7,1,8,8,8,8,12,11,10,18,19,7,5,17,0,1,0,0.381,
5,3,13,8,4,3,2,7,8,8,8,8,4,3,2,7,8,8,8,8,14,13,8,3,15,20,9,11,1,1,1,0.699,
5,3,13,9,5,7,6,1,8,8,8,8,5,7,6,3,8,8,8,8,17,3,8,9,11,10,1,16,0,0,1,0.7,
5,3,13,10,3,7,4,6,8,8,8,8,3,7,4,6,8,8,8,8,1,15,9,11,3,16,12,4,1,1,1,0.605,
5,3,13,11,6,1,2,7,8,8,8,8,6,1,2,5,8,8,8,8,8,16,7,17,4,14,1,13,0,0,1,0.684,
5,3,13,12,4,6,3,5,8,8,8,8,4,6,3,5,8,8,8,8,13,10,15,6,7,17,20,2,1,1,1,0.746,
5,3,13,13,1,7,6,5,8,8,8,8,1,7,6,5,8,8,8,8,18,12,16,9,2,11,1,10,1,1,1,0.634,
5,3,13,14,3,2,7,1,8,8,8,8,3,2,7,1,8,8,8,8,16,13,5,19,14,6,7,4,1,1,1,0.963,
5,3,13,15,5,3,4,6,8,8,8,8,5,3,4,2,8,8,8,8,5,6,3,16,20,15,1,8,0,0,1,0.627,
5,3,13,16,2,3,1,4,8,8,8,8,2,3,1,4,8,8,8,8,2,16,14,4,7,15,12,19,1,1,1,0.386,
5,3,13,17,2,5,3,1,8,8,8,8,2,5,3,1,8,8,8,8,12,13,7,10,16,2,17,8,1,1,1,0.56,
5,3,13,18,2,6,4,3,8,8,8,8,2,6,4,3,8,8,8,8,11,10,3,5,18,9,1,6,1,1,1,0.497,
5,3,13,19,5,2,3,4,8,8,8,8,5,2,3,7,8,8,8,8,16,10,7,4,17,8,20,9,0,0,1,1.047,
5,3,13,20,2,3,6,7,8,8,8,8,2,3,6,7,8,8,8,8,16,3,19,14,2,6,11,4,1,1,1,0.626,
5,3,13,21,3,4,1,5,8,8,8,8,3,4,1,5,8,8,8,8,14,9,3,18,1,2,15,16,1,1,1,0.536,
5,3,13,22,4,2,1,6,8,8,8,8,4,2,1,6,8,8,8,8,18,10,15,11,5,4,1,12,1,1,1,0.566,
5,3,13,23,6,4,1,3,8,8,8,8,6,4,1,7,8,8,8,8,17,4,18,6,3,7,5,8,0,0,1,0.478,
5,3,13,24,7,5,3,4,8,8,8,8,7,5,3,6,8,8,8,8,14,8,17,2,4,19,13,15,0,0,1,0.698,
5,3,13,25,1,2,5,3,8,8,8,8,1,2,5,3,8,8,8,8,9,6,11,3,12,14,17,18,1,1,1,0.536,
5,3,13,26,2,1,7,5,8,8,8,8,2,1,7,5,8,8,8,8,19,17,12,18,10,7,6,14,1,1,1,0.664,
5,3,13,27,4,7,2,1,8,8,8,8,4,7,2,3,8,8,8,8,15,20,11,14,9,2,12,19,0,0,1,0.49,
5,3,13,28,1,5,2,6,8,8,8,8,1,5,2,6,8,8,8,8,13,6,9,3,7,16,15,8,1,1,1,0.468,
5,3,13,29,1,5,6,7,8,8,8,8,1,5,6,7,8,8,8,8,4,14,7,6,5,15,8,2,1,1,1,0.377,
5,3,13,30,5,4,1,7,8,8,8,8,5,4,1,3,8,8,8,8,8,17,3,20,12,14,6,13,0,1,0,0.466,
5,3,13,31,3,6,2,4,8,8,8,8,3,6,2,4,8,8,8,8,18,19,20,13,12,7,9,8,1,1,1,0.367,
5,3,13,32,7,6,2,3,8,8,8,8,7,6,2,4,8,8,8,8,6,18,19,5,13,20,10,15,0,0,1,0.653,
5,3,13,33,4,1,6,3,8,8,8,8,4,1,6,2,8,8,8,8,5,15,10,12,7,6,4,8,0,0,1,0.707,
5,3,13,34,7,3,1,2,8,8,8,8,7,3,1,6,8,8,8,8,3,15,8,1,17,9,10,14,0,0,1,0.792,
5,3,13,35,7,4,6,1,8,8,8,8,7,4,6,5,8,8,8,8,20,2,15,1,7,14,6,3,0,0,1,0.724,
5,3,13,36,5,6,7,2,8,8,8,8,5,6,7,4,8,8,8,8,17,18,1,12,8,9,10,15,0,0,1,0.649,
5,3,13,37,7,1,4,5,8,8,8,8,7,1,4,6,8,8,8,8,12,19,7,18,10,11,9,16,0,0,1,0.838,
5,3,13,38,6,7,4,5,8,8,8,8,6,7,4,2,8,8,8,8,12,13,10,11,8,20,18,16,0,0,1,0.568,
5,3,13,39,2,4,5,6,8,8,8,8,2,4,5,6,8,8,8,8,10,4,18,13,9,16,11,20,1,1,1,0.576,
5,3,13,40,7,2,5,6,8,8,8,8,7,2,5,1,8,8,8,8,1,18,3,7,20,2,16,13,0,0,1,0.498,
5,4,14,1,1,1,2,3,3,5,5,7,1,1,2,3,3,5,5,7,3,7,2,15,17,9,1,12,1,1,1,0.702,
5,4,14,2,1,3,4,4,5,6,7,7,1,3,4,3,5,6,7,7,4,14,19,9,2,11,8,18,0,1,0,0.633,
5,4,14,3,1,1,2,4,4,5,6,7,1,1,2,4,4,5,6,7,8,5,11,17,14,20,15,6,1,0,0,0.697,
5,4,14,4,1,2,3,4,4,5,6,6,1,2,3,4,4,5,6,6,13,15,12,18,5,3,17,8,1,1,1,0.803,
5,4,14,5,2,2,3,4,5,6,6,7,2,5,3,4,5,6,6,7,8,13,3,1,18,16,2,11,0,1,0,0.535,
5,4,14,6,1,2,2,3,3,4,5,7,1,2,2,3,3,4,5,7,8,7,5,17,11,18,12,19,1,1,1,0.729,
5,4,14,7,1,1,2,2,3,4,6,7,1,1,2,2,3,4,5,7,13,6,8,5,9,14,4,2,0,0,1,0.805,
5,4,14,8,1,2,2,3,4,5,5,6,1,2,2,3,4,5,5,6,6,13,10,1,12,20,2,14,1,1,1,0.421,
5,4,14,9,1,1,2,2,3,4,5,7,1,1,2,2,3,4,5,7,17,9,13,1,20,11,15,16,1,1,1,0.489,
5,4,14,10,1,2,3,4,4,5,7,7,1,2,3,4,4,6,7,7,4,8,15,3,14,2,19,1,0,0,1,0.89,
5,4,14,11,1,2,2,3,4,4,6,6,1,2,2,3,4,4,6,6,10,13,5,8,12,11,16,9,1,1,1,0.45,
5,4,14,12,1,3,4,5,5,6,6,7,2,3,4,5,5,6,6,7,11,14,15,1,19,16,18,10,0,0,1,0.646,
5,4,14,13,3,3,4,4,5,5,6,7,3,3,7,4,5,5,6,7,10,13,17,14,18,6,15,5,0,1,0,0.492,
5,4,14,14,1,2,3,4,5,5,6,6,1,2,3,4,5,5,6,6,19,14,12,16,9,13,18,15,1,1,1,0.455,
5,4,14,15,2,2,3,4,5,6,7,7,2,2,3,4,6,6,7,7,20,4,13,1,12,6,5,2,0,0,1,0.654,
5,4,14,16,2,3,3,4,4,5,6,7,1,3,3,4,4,5,6,7,7,18,3,10,13,9,20,6,0,0,1,1.078,
5,4,14,17,1,2,4,4,5,5,7,7,1,2,3,4,5,5,7,7,6,8,17,9,12,18,15,13,0,1,0,0.678,
5,4,14,18,1,1,2,3,4,6,7,7,1,1,2,3,4,6,7,7,18,20,16,2,6,5,13,12,1,1,1,0.495,
5,4,14,19,1,2,2,3,4,6,7,7,1,2,2,3,4,5,7,7,2,19,14,9,20,1,10,3,0,1,0,0.789,
5,4,14,20,2,3,4,5,5,6,6,7,1,3,4,5,5,6,6,7,16,9,4,1,8,13,12,20,0,1,0,0.475,
5,4,14,21,1,2,3,4,5,5,6,6,1,2,3,4,5,5,6,6,18,10,13,19,14,12,5,20,1,1,1,0.368,
5,4,14,22,1,2,2,3,5,6,7,7,1,1,2,3,5,6,7,7,1,17,11,9,10,6,7,5,0,1,0,0.39,
5,4,14,23,1,2,2,3,3,4,5,7,6,2,2,3,3,4,5,7,10,1,17,11,5,3,20,12,0,0,1,0.66,
5,4,14,24,3,3,4,4,5,6,6,7,5,3,4,4,5,6,6,7,17,5,10,4,2,9,3,12,0,1,0,0.487,
5,4,14,25,3,4,5,5,6,6,7,7,3,4,4,5,6,6,7,7,1,17,10,4,3,5,16,8,0,1,0,0.402,
5,4,14,26,1,1,2,3,6,6,7,7,1,1,2,3,6,6,7,7,17,19,3,5,20,15,1,9,1,1,1,0.601,
5,4,14,27,1,3,4,5,5,6,7,7,1,3,4,1,5,6,7,7,12,14,10,19,17,4,11,9,0,1,0,0.424,
5,4,14,28,1,2,3,3,4,6,6,7,1,2,3,3,5,6,6,7,6,8,20,14,17,15,11,19,0,1,0,0.72,
5,4,14,29,1,2,2,3,4,5,5,6,1,2,2,3,4,5,5,6,8,6,5,4,18,17,20,1,1,1,1,0.446,
5,4,14,30,1,1,2,4,5,6,6,7,1,1,2,4,5,6,6,7,5,14,17,6,15,3,20,12,1,1,1,0.427,
5,4,14,31,1,2,2,3,5,5,7,7,1,2,2,4,5,5,7,7,6,14,20,10,3,12,9,18,0,1,0,0.317,
5,4,14,32,1,1,2,3,3,4,5,6,1,1,2,3,3,4,5,6,2,11,10,6,8,17,12,4,1,1,1,0.469,
5,4,14,33,1,1,2,3,4,6,6,7,1,1,2,3,4,6,6,7,5,12,3,9,19,20,10,7,1,1,1,0.541,
5,4,14,34,1,1,2,3,3,4,5,7,1,1,2,3,3,4,5,7,17,1,12,20,19,13,9,5,1,1,1,0.444,
5,4,14,35,1,1,2,2,3,4,7,7,1,1,2,2,3,4,7,7,7,10,20,4,9,13,2,6,1,1,1,0.41,
5,4,14,36,1,1,3,4,5,6,7,7,1,1,3,4,5,6,7,7,9,12,3,8,17,6,5,13,1,1,1,0.498,
5,4,14,37,2,3,4,4,5,5,6,6,7,3,4,4,5,5,6,6,2,1,18,9,14,7,19,17,0,1,0,0.505,
5,4,14,38,1,1,2,2,4,5,6,7,1,1,2,2,4,5,6,7,2,17,19,15,3,8,4,10,1,0,0,0.961,
5,4,14,39,1,1,3,3,4,4,5,7,1,1,3,3,4,4,5,7,14,16,9,6,1,3,8,17,1,1,1,0.665,
5,4,14,40,1,2,3,5,5,6,6,7,1,4,3,5,5,6,6,7,5,13,7,18,10,15,17,16,0,0,1,0.957,
6,2,21,1,2,3,3,4,4,5,6,7,1,3,3,4,4,5,6,7,9,3,19,13,4,11,10,18,0,1,0,1.188,
6,2,21,2,3,4,5,5,6,6,7,7,3,4,4,5,6,6,7,7,6,3,10,19,14,15,16,4,0,1,0,0.697,
6,2,21,3,1,1,2,3,4,6,6,7,1,1,2,3,4,6,6,7,19,6,17,14,18,3,16,20,1,1,1,1.109,
6,2,21,4,1,1,2,2,3,4,5,7,1,1,2,2,3,4,5,7,6,17,18,14,11,12,4,13,1,1,1,0.907,
6,2,21,5,1,2,2,3,3,4,5,7,1,2,2,3,3,4,5,7,4,12,1,13,8,6,9,19,1,0,0,1.093,
6,2,21,6,2,2,3,4,5,6,6,7,2,5,3,4,5,6,6,7,10,13,20,5,9,16,7,12,0,0,1,0.764,
6,2,21,7,1,2,3,3,4,6,6,7,1,2,3,3,5,6,6,7,4,20,17,5,10,8,19,11,0,0,1,0.828,
6,2,21,8,2,3,4,5,5,6,6,7,1,3,4,5,5,6,6,7,3,17,11,4,9,19,5,7,0,0,1,0.739,
6,2,21,9,1,1,2,3,3,4,5,7,1,1,2,3,3,4,5,7,2,12,11,18,5,15,8,16,1,1,1,0.613,
6,2,21,10,1,2,3,4,4,5,6,6,1,2,3,4,4,5,6,6,10,15,4,12,11,20,18,1,1,1,1,0.641,
6,2,21,11,1,1,2,4,4,5,6,7,1,1,2,4,4,5,6,7,12,5,10,17,15,8,4,9,1,1,1,0.569,
6,2,21,12,1,2,3,5,5,6,6,7,1,4,3,5,5,6,6,7,10,2,4,17,20,5,8,18,0,0,1,0.672,
6,2,21,13,1,2,2,3,4,6,7,7,1,2,2,3,4,5,7,7,3,7,13,9,14,4,11,6,0,0,1,0.646,
6,2,21,14,1,2,2,3,3,4,5,7,6,2,2,3,3,4,5,7,17,18,9,13,7,15,11,19,0,0,1,0.852,
6,2,21,15,3,3,4,4,5,5,6,7,3,3,7,4,5,5,6,7,9,8,10,13,17,6,7,15,0,0,1,0.652,
6,2,21,16,1,1,2,4,5,6,6,7,1,1,2,4,5,6,6,7,15,1,3,19,12,2,5,6,1,1,1,0.67,
6,2,21,17,1,1,3,3,4,4,5,7,1,1,3,3,4,4,5,7,17,19,20,7,12,11,2,16,1,1,1,0.82,
6,2,21,18,1,2,2,3,4,5,5,6,1,2,2,3,4,5,5,6,5,19,11,18,3,7,17,12,1,1,1,0.82,
6,2,21,19,2,3,4,4,5,5,6,6,7,3,4,4,5,5,6,6,10,8,17,7,18,1,12,14,0,0,1,0.594,
6,2,21,20,1,3,4,5,5,6,6,7,2,3,4,5,5,6,6,7,3,4,7,13,10,6,16,8,0,0,1,0.906,
6,2,21,21,1,2,2,3,4,4,6,6,1,2,2,3,4,4,6,6,1,7,12,11,15,10,19,16,1,1,1,0.477,
6,2,21,22,3,3,4,4,5,6,6,7,5,3,4,4,5,6,6,7,9,14,17,8,1,3,18,15,0,1,0,0.957,
6,2,21,23,1,2,3,4,5,5,6,6,1,2,3,4,5,5,6,6,11,16,5,10,18,20,8,17,1,1,1,0.615,
6,2,21,24,1,1,2,3,3,4,5,6,1,1,2,3,3,4,5,6,12,6,18,5,15,8,3,7,1,1,1,0.713,
6,2,21,25,1,1,2,3,3,5,5,7,1,1,2,3,3,5,5,7,6,8,16,9,15,18,20,13,1,1,1,0.548,
6,2,21,26,1,1,2,3,6,6,7,7,1,1,2,3,6,6,7,7,6,11,18,1,13,8,20,7,1,1,1,0.491,
6,2,21,27,1,2,3,4,4,5,7,7,1,2,3,4,4,6,7,7,14,20,17,1,9,10,2,8,0,1,0,0.561,
6,2,21,28,1,1,2,2,3,4,6,7,1,1,2,2,3,4,5,7,15,13,7,20,16,5,18,14,0,0,1,0.497,
6,2,21,29,1,3,4,4,5,6,7,7,1,3,4,3,5,6,7,7,3,12,14,10,9,4,2,13,0,1,0,0.692,
6,2,21,30,1,1,2,2,4,5,6,7,1,1,2,2,4,5,6,7,2,16,14,13,4,19,15,9,1,1,1,0.663,
6,2,21,31,1,2,2,3,4,5,5,6,1,2,2,3,4,5,5,6,11,20,2,1,16,5,4,18,1,1,1,0.527,
6,2,21,32,1,2,3,4,5,5,6,6,1,2,3,4,5,5,6,6,13,16,20,7,5,2,17,18,1,1,1,0.552,
6,2,21,33,1,1,2,3,4,6,7,7,1,1,2,3,4,6,7,7,9,17,11,18,14,20,15,8,1,1,1,1.018,
6,2,21,34,1,1,3,4,5,6,7,7,1,1,3,4,5,6,7,7,3,2,5,7,18,11,4,9,1,0,0,0.805,
6,2,21,35,1,3,4,5,5,6,7,7,1,3,4,1,5,6,7,7,17,16,20,15,14,10,18,2,0,0,1,1.116,
6,2,21,36,1,2,4,4,5,5,7,7,1,2,3,4,5,5,7,7,18,3,12,7,15,13,10,14,0,0,1,0.718,
6,2,21,37,1,2,2,3,5,6,7,7,1,1,2,3,5,6,7,7,9,5,12,20,7,4,2,13,0,0,1,0.703,
6,2,21,38,2,2,3,4,5,6,7,7,2,2,3,4,6,6,7,7,13,2,17,8,7,12,20,9,0,0,1,0.703,
6,2,21,39,1,2,2,3,5,5,7,7,1,2,2,4,5,5,7,7,3,18,17,5,1,19,11,16,0,0,1,0.758,
6,2,21,40,1,1,2,2,3,4,7,7,1,1,2,2,3,4,7,7,10,14,1,17,18,13,20,7,1,1,1,1.241,
6,4,22,1,1,2,3,4,5,5,6,6,1,2,3,4,5,5,6,6,19,10,14,20,4,15,11,3,1,1,1,1.31,
6,4,22,2,1,2,2,3,5,5,7,7,1,2,2,4,5,5,7,7,20,4,10,17,16,6,1,8,0,0,1,0.908,
6,4,22,3,1,1,3,3,4,4,5,7,1,1,3,3,4,4,5,7,8,4,19,10,16,15,6,14,1,1,1,0.693,
6,4,22,4,1,2,3,4,4,5,7,7,1,2,3,4,4,6,7,7,20,10,11,13,2,7,6,15,0,1,0,0.836,
6,4,22,5,1,2,3,4,4,5,6,6,1,2,3,4,4,5,6,6,10,11,1,12,9,18,5,14,1,1,1,0.537,
6,4,22,6,1,2,3,3,4,6,6,7,1,2,3,3,5,6,6,7,19,12,10,14,3,1,8,7,0,0,1,0.543,
6,4,22,7,1,1,2,3,3,4,5,6,1,1,2,3,3,4,5,6,7,8,2,3,16,20,17,6,1,1,1,0.541,
6,4,22,8,3,3,4,4,5,5,6,7,3,3,7,4,5,5,6,7,9,4,11,5,18,3,15,10,0,0,1,0.612,
6,4,22,9,1,3,4,4,5,6,7,7,1,3,4,3,5,6,7,7,14,9,17,20,19,1,16,4,0,0,1,0.893,
6,4,22,10,1,1,2,2,3,4,5,7,1,1,2,2,3,4,5,7,9,17,8,3,6,15,13,7,1,1,1,1.689,
6,4,22,11,1,2,2,3,5,6,7,7,1,1,2,3,5,6,7,7,20,12,14,10,7,16,3,4,0,0,1,1.02,
6,4,22,12,1,3,4,5,5,6,7,7,1,3,4,1,5,6,7,7,13,16,10,14,17,20,8,9,0,0,1,0.499,
6,4,22,13,1,2,3,5,5,6,6,7,1,4,3,5,5,6,6,7,2,1,19,18,14,13,16,3,0,1,0,0.769,
6,4,22,14,1,1,2,3,3,5,5,7,1,1,2,3,3,5,5,7,1,16,13,12,6,2,3,18,1,1,1,0.535,
6,4,22,15,1,2,2,3,3,4,5,7,6,2,2,3,3,4,5,7,8,3,12,7,18,4,9,13,0,1,0,0.603,
6,4,22,16,1,2,2,3,4,6,7,7,1,2,2,3,4,5,7,7,10,7,16,2,1,12,6,9,0,0,1,0.524,
6,4,22,17,1,3,4,5,5,6,6,7,2,3,4,5,5,6,6,7,6,10,14,2,17,20,5,1,0,0,1,0.599,
6,4,22,18,1,2,2,3,4,5,5,6,1,2,2,3,4,5,5,6,9,3,6,2,14,7,20,15,1,1,1,0.533,
6,4,22,19,1,1,2,4,4,5,6,7,1,1,2,4,4,5,6,7,7,19,8,18,3,9,20,14,1,1,1,0.458,
6,4,22,20,2,3,3,4,4,5,6,7,1,3,3,4,4,5,6,7,5,3,20,13,7,9,2,14,0,0,1,0.478,
6,4,22,21,3,4,5,5,6,6,7,7,3,4,4,5,6,6,7,7,12,13,16,9,4,17,6,14,0,1,0,0.493,
6,4,22,22,1,1,2,2,3,4,7,7,1,1,2,2,3,4,7,7,1,14,10,20,8,3,16,5,1,1,1,0.589,
6,4,22,23,1,1,3,4,5,6,7,7,1,1,3,4,5,6,7,7,12,15,13,11,20,10,16,7,1,1,1,0.885,
6,4,22,24,1,1,2,3,4,6,7,7,1,1,2,3,4,6,7,7,14,5,15,18,4,6,12,10,1,1,1,1.079,
6,4,22,25,1,1,2,3,3,4,5,7,1,1,2,3,3,4,5,7,3,7,17,15,9,20,6,2,1,1,1,0.825,
6,4,22,26,1,1,2,3,6,6,7,7,1,1,2,3,6,6,7,7,6,14,2,7,20,5,9,16,1,1,1,0.652,
6,4,22,27,1,2,2,3,4,4,6,6,1,2,2,3,4,4,6,6,15,10,17,16,11,2,6,7,1,1,1,0.535,
6,4,22,28,2,2,3,4,5,6,7,7,2,2,3,4,6,6,7,7,6,12,17,4,5,13,8,20,0,1,0,0.595,
6,4,22,29,1,1,2,3,4,6,6,7,1,1,2,3,4,6,6,7,12,10,6,15,13,5,7,17,1,1,1,0.689,
6,4,22,30,3,3,4,4,5,6,6,7,5,3,4,4,5,6,6,7,10,3,4,9,11,8,6,2,0,0,1,0.614,
6,4,22,31,1,2,4,4,5,5,7,7,1,2,3,4,5,5,7,7,17,5,13,9,1,3,18,12,0,0,1,0.635,
6,4,22,32,2,3,4,4,5,5,6,6,7,3,4,4,5,5,6,6,11,2,18,13,19,9,5,8,0,0,1,0.602,
6,4,22,33,1,1,2,4,5,6,6,7,1,1,2,4,5,6,6,7,12,7,17,11,2,18,19,3,1,1,1,0.61,
6,4,22,34,1,2,3,4,5,5,6,6,1,2,3,4,5,5,6,6,3,20,1,4,9,10,5,19,1,1,1,0.662,
6,4,22,35,1,1,2,2,3,4,6,7,1,1,2,2,3,4,5,7,13,16,19,11,14,5,3,4,0,1,0,0.871,
6,4,22,36,1,2,2,3,4,5,5,6,1,2,2,3,4,5,5,6,5,4,17,7,15,16,13,12,1,1,1,0.556,
6,4,22,37,1,2,2,3,3,4,5,7,1,2,2,3,3,4,5,7,19,14,20,10,1,15,9,12,1,0,0,1.187,
6,4,22,38,1,1,2,2,4,5,6,7,1,1,2,2,4,5,6,7,2,18,3,19,10,12,14,4,1,1,1,0.609,
6,4,22,39,2,3,4,5,5,6,6,7,1,3,4,5,5,6,6,7,13,12,15,14,7,6,8,4,0,1,0,0.649,
6,4,22,40,2,2,3,4,5,6,6,7,2,5,3,4,5,6,6,7,17,12,1,18,19,7,15,20,0,0,1,0.535,
6,1,23,1,5,7,6,1,8,8,8,8,5,7,6,3,8,8,8,8,1,13,8,14,20,11,9,15,0,0,1,0.668,
6,1,23,2,7,2,5,6,8,8,8,8,7,2,5,1,8,8,8,8,17,13,16,7,15,18,6,10,0,0,1,0.534,
6,1,23,3,1,7,6,5,8,8,8,8,1,7,6,5,8,8,8,8,7,20,13,6,8,15,5,18,1,0,0,0.513,
6,1,23,4,7,3,1,2,8,8,8,8,7,3,1,6,8,8,8,8,9,17,6,3,20,2,14,8,0,0,1,0.573,
6,1,23,5,4,2,1,6,8,8,8,8,4,2,1,6,8,8,8,8,18,13,19,1,16,12,4,5,1,1,1,0.382,
6,1,23,6,3,7,4,6,8,8,8,8,3,7,4,6,8,8,8,8,20,15,8,9,19,10,12,3,1,1,1,0.479,
6,1,23,7,6,7,4,5,8,8,8,8,6,7,4,2,8,8,8,8,10,14,20,19,16,1,7,6,0,0,1,0.617,
6,1,23,8,2,4,5,6,8,8,8,8,2,4,5,6,8,8,8,8,4,8,9,16,20,13,12,11,1,1,1,0.444,
6,1,23,9,1,2,7,4,8,8,8,8,1,2,7,4,8,8,8,8,1,15,13,3,5,8,14,9,1,1,1,0.516,
6,1,23,10,3,6,2,4,8,8,8,8,3,6,2,4,8,8,8,8,9,5,20,14,19,6,4,13,1,1,1,0.456,
6,1,23,11,7,5,3,4,8,8,8,8,7,5,3,6,8,8,8,8,10,6,3,8,12,18,5,13,0,0,1,0.723,
6,1,23,12,5,2,3,4,8,8,8,8,5,2,3,7,8,8,8,8,8,19,10,13,12,2,7,1,0,0,1,0.636,
6,1,23,13,3,4,1,5,8,8,8,8,3,4,1,5,8,8,8,8,16,14,7,9,6,13,2,18,1,1,1,0.939,
6,1,23,14,3,5,6,7,8,8,8,8,3,5,6,7,8,8,8,8,6,13,4,8,1,7,12,3,1,1,1,0.736,
6,1,23,15,5,1,2,3,8,8,8,8,5,1,2,7,8,8,8,8,6,9,12,10,17,11,13,19,0,0,1,0.641,
6,1,23,16,1,5,6,7,8,8,8,8,1,5,6,7,8,8,8,8,16,20,4,13,1,17,3,2,1,1,1,0.451,
6,1,23,17,4,6,3,5,8,8,8,8,4,6,3,5,8,8,8,8,2,16,7,9,1,19,13,14,1,1,1,0.505,
6,1,23,18,7,6,2,3,8,8,8,8,7,6,2,4,8,8,8,8,17,3,13,7,4,9,10,15,0,0,1,0.54,
6,1,23,19,6,1,2,7,8,8,8,8,6,1,2,5,8,8,8,8,18,1,2,12,20,4,13,9,0,0,1,0.604,
6,1,23,20,5,4,1,7,8,8,8,8,5,4,1,3,8,8,8,8,2,14,4,15,17,9,12,1,0,0,1,0.668,
6,1,23,21,2,3,6,7,8,8,8,8,2,3,6,7,8,8,8,8,7,13,9,4,17,18,1,10,1,1,1,0.506,
6,1,23,22,6,4,1,3,8,8,8,8,6,4,1,7,8,8,8,8,1,6,12,9,14,19,2,5,0,0,1,1.068,
6,1,23,23,1,5,2,6,8,8,8,8,1,5,2,6,8,8,8,8,17,2,1,12,13,20,10,11,1,1,1,0.458,
6,1,23,24,5,6,7,2,8,8,8,8,5,6,7,4,8,8,8,8,2,10,4,8,18,14,1,20,0,0,1,0.591,
6,1,23,25,4,1,6,3,8,8,8,8,4,1,6,2,8,8,8,8,6,14,13,8,19,11,16,18,0,1,0,0.454,
6,1,23,26,2,1,7,5,8,8,8,8,2,1,7,5,8,8,8,8,1,7,14,20,16,6,8,12,1,1,1,0.477,
6,1,23,27,7,4,6,1,8,8,8,8,7,4,6,5,8,8,8,8,15,14,7,10,2,6,20,8,0,0,1,0.443,
6,1,23,28,2,6,4,3,8,8,8,8,2,6,4,3,8,8,8,8,20,11,17,3,19,14,8,5,1,1,1,0.854,
6,1,23,29,1,4,3,2,8,8,8,8,1,4,3,2,8,8,8,8,5,8,3,16,13,7,17,9,1,1,1,0.477,
6,1,23,30,6,3,5,1,8,8,8,8,6,3,5,4,8,8,8,8,16,1,18,19,10,14,5,20,0,0,1,0.529,
6,1,23,31,5,3,4,6,8,8,8,8,5,3,4,2,8,8,8,8,12,5,7,10,4,18,2,3,0,1,0,0.45,
6,1,23,32,6,5,3,4,8,8,8,8,6,5,3,1,8,8,8,8,14,8,2,6,11,4,12,20,0,0,1,0.476,
6,1,23,33,2,5,3,1,8,8,8,8,2,5,3,1,8,8,8,8,7,11,16,20,2,9,18,17,1,1,1,0.639,
6,1,23,34,4,5,7,2,8,8,8,8,4,5,7,1,8,8,8,8,18,8,11,7,6,1,9,17,0,0,1,0.508,
6,1,23,35,2,3,1,4,8,8,8,8,2,3,1,4,8,8,8,8,3,6,19,5,2,17,10,8,1,1,1,0.424,
6,1,23,36,4,7,2,1,8,8,8,8,4,7,2,3,8,8,8,8,3,18,17,7,4,2,8,5,0,0,1,0.547,
6,1,23,37,1,2,5,3,8,8,8,8,1,2,5,3,8,8,8,8,10,2,11,12,15,4,19,16,1,1,1,0.433,
6,1,23,38,4,3,2,7,8,8,8,8,4,3,2,7,8,8,8,8,8,12,4,10,18,6,1,16,1,1,1,0.451,
6,1,23,39,3,2,7,1,8,8,8,8,3,2,7,1,8,8,8,8,4,8,16,18,1,9,20,5,1,1,1,0.502,
6,1,23,40,7,1,4,5,8,8,8,8,7,1,4,6,8,8,8,8,17,19,8,4,15,20,6,10,0,0,1,0.745,
6,3,24,1,4,1,6,3,8,8,8,8,4,1,6,2,8,8,8,8,17,6,3,2,15,13,14,8,0,0,1,0.568,
6,3,24,2,6,5,3,4,8,8,8,8,6,5,3,1,8,8,8,8,19,2,18,10,13,1,14,16,0,0,1,0.567,
6,3,24,3,1,7,6,5,8,8,8,8,1,7,6,5,8,8,8,8,18,8,11,7,16,19,12,17,1,1,1,0.491,
6,3,24,4,4,7,2,1,8,8,8,8,4,7,2,3,8,8,8,8,9,17,11,4,6,13,1,16,0,0,1,0.545,
6,3,24,5,5,2,3,4,8,8,8,8,5,2,3,7,8,8,8,8,3,7,19,8,12,9,18,5,0,0,1,0.803,
6,3,24,6,2,4,5,6,8,8,8,8,2,4,5,6,8,8,8,8,17,4,20,8,12,6,10,9,1,1,1,0.493,
6,3,24,7,4,6,3,5,8,8,8,8,4,6,3,5,8,8,8,8,2,16,20,5,11,18,7,4,1,1,1,0.684,
6,3,24,8,3,6,2,4,8,8,8,8,3,6,2,4,8,8,8,8,17,16,3,6,8,4,7,11,1,1,1,0.516,
6,3,24,9,1,2,7,4,8,8,8,8,1,2,7,4,8,8,8,8,13,9,15,1,4,11,7,17,1,1,1,0.601,
6,3,24,10,6,4,1,3,8,8,8,8,6,4,1,7,8,8,8,8,5,1,2,9,13,18,17,20,0,0,1,0.594,
6,3,24,11,1,5,6,7,8,8,8,8,1,5,6,7,8,8,8,8,10,9,7,5,20,19,17,6,1,1,1,0.726,
6,3,24,12,2,1,7,5,8,8,8,8,2,1,7,5,8,8,8,8,20,13,17,19,5,12,18,14,1,1,1,0.615,
6,3,24,13,5,1,2,3,8,8,8,8,5,1,2,7,8,8,8,8,11,19,14,7,17,13,5,3,0,0,1,0.571,
6,3,24,14,7,4,6,1,8,8,8,8,7,4,6,5,8,8,8,8,18,6,3,16,11,15,10,20,0,0,1,0.582,
6,3,24,15,2,3,6,7,8,8,8,8,2,3,6,7,8,8,8,8,5,15,19,4,12,2,13,8,1,1,1,0.417,
6,3,24,16,6,7,4,5,8,8,8,8,6,7,4,2,8,8,8,8,8,9,15,20,3,13,18,14,0,0,1,0.585,
6,3,24,17,3,2,7,1,8,8,8,8,3,2,7,1,8,8,8,8,18,10,9,8,15,3,20,7,1,1,1,0.498,
6,3,24,18,3,5,6,7,8,8,8,8,3,5,6,7,8,8,8,8,15,11,3,17,16,18,1,5,1,1,1,0.825,
6,3,24,19,6,1,2,7,8,8,8,8,6,1,2,5,8,8,8,8,8,3,10,19,14,6,17,18,0,0,1,0.856,
6,3,24,20,5,7,6,1,8,8,8,8,5,7,6,3,8,8,8,8,19,17,2,8,14,15,12,10,0,0,1,0.58,
6,3,24,21,3,4,1,5,8,8,8,8,3,4,1,5,8,8,8,8,9,20,14,16,2,1,19,8,1,1,1,0.527,
6,3,24,22,7,2,5,6,8,8,8,8,7,2,5,1,8,8,8,8,7,3,6,9,12,18,4,16,0,0,1,0.602,
6,3,24,23,7,3,1,2,8,8,8,8,7,3,1,6,8,8,8,8,1,18,17,10,11,15,3,16,0,0,1,0.54,
6,3,24,24,6,3,5,1,8,8,8,8,6,3,5,4,8,8,8,8,1,11,6,9,8,3,13,2,0,0,1,0.584,
6,3,24,25,4,3,2,7,8,8,8,8,4,3,2,7,8,8,8,8,6,9,20,2,1,19,5,15,1,1,1,0.58,
6,3,24,26,7,1,4,5,8,8,8,8,7,1,4,6,8,8,8,8,4,3,8,6,14,10,19,17,0,0,1,0.773,
6,3,24,27,2,6,4,3,8,8,8,8,2,6,4,3,8,8,8,8,4,18,10,8,11,12,13,17,1,1,1,0.659,
6,3,24,28,7,6,2,3,8,8,8,8,7,6,2,4,8,8,8,8,12,10,17,14,15,16,5,9,0,0,1,0.774,
6,3,24,29,4,2,1,6,8,8,8,8,4,2,1,6,8,8,8,8,15,10,12,18,16,14,2,7,1,0,0,0.837,
6,3,24,30,3,7,4,6,8,8,8,8,3,7,4,6,8,8,8,8,4,10,5,17,1,19,14,9,1,0,0,1.315,
6,3,24,31,2,3,1,4,8,8,8,8,2,3,1,4,8,8,8,8,6,1,8,4,10,2,7,9,1,1,1,0.74,
6,3,24,32,5,6,7,2,8,8,8,8,5,6,7,4,8,8,8,8,1,10,12,14,11,6,20,9,0,0,1,0.814,
6,3,24,33,5,4,1,7,8,8,8,8,5,4,1,3,8,8,8,8,9,10,8,12,5,13,3,14,0,0,1,0.94,
6,3,24,34,7,5,3,4,8,8,8,8,7,5,3,6,8,8,8,8,12,15,9,19,17,1,11,10,0,0,1,0.953,
6,3,24,35,1,4,3,2,8,8,8,8,1,4,3,2,8,8,8,8,6,12,20,13,11,9,10,2,1,1,1,1.01,
6,3,24,36,1,2,5,3,8,8,8,8,1,2,5,3,8,8,8,8,15,17,9,7,12,2,16,20,1,1,1,0.948,
6,3,24,37,5,3,4,6,8,8,8,8,5,3,4,2,8,8,8,8,1,11,12,6,18,20,3,17,0,0,1,0.901,
6,3,24,38,4,5,7,2,8,8,8,8,4,5,7,1,8,8,8,8,4,14,1,20,11,19,16,7,0,0,1,0.784,
6,3,24,39,2,5,3,1,8,8,8,8,2,5,3,1,8,8,8,8,1,15,17,11,8,20,18,13,1,1,1,0.91,
6,3,24,40,1,5,2,6,8,8,8,8,1,5,2,6,8,8,8,8,2,9,18,13,20,6,11,3,1,1,1,0.79,
7,3,31,1,7,1,4,5,8,8,8,8,7,1,4,6,8,8,8,8,14,10,6,4,8,11,13,18,0,1,0,2.81,
7,3,31,2,1,2,7,4,8,8,8,8,1,2,7,4,8,8,8,8,16,12,9,13,19,3,17,5,1,1,1,0.789,
7,3,31,3,2,5,3,1,8,8,8,8,2,5,3,1,8,8,8,8,20,7,17,4,10,5,8,18,1,0,0,1.117,
7,3,31,4,1,4,3,2,8,8,8,8,1,4,3,2,8,8,8,8,6,14,18,7,2,8,1,15,1,1,1,0.581,
7,3,31,5,3,5,6,7,8,8,8,8,3,5,6,7,8,8,8,8,12,6,8,13,10,5,1,19,1,1,1,0.551,
7,3,31,6,7,3,1,2,8,8,8,8,7,3,1,6,8,8,8,8,20,6,5,8,4,15,12,13,0,1,0,1.102,
7,3,31,7,7,4,6,1,8,8,8,8,7,4,6,5,8,8,8,8,11,6,9,20,13,19,18,1,0,0,1,0.942,
7,3,31,8,1,2,5,3,8,8,8,8,1,2,5,3,8,8,8,8,12,20,3,2,13,7,10,8,1,1,1,0.618,
7,3,31,9,5,2,3,4,8,8,8,8,5,2,3,7,8,8,8,8,5,19,6,12,1,13,14,3,0,1,0,0.859,
7,3,31,10,2,3,1,4,8,8,8,8,2,3,1,4,8,8,8,8,16,20,19,13,14,18,15,10,1,1,1,27.093,
7,3,31,11,3,6,2,4,8,8,8,8,3,6,2,4,8,8,8,8,6,4,15,7,18,16,1,13,1,1,1,1.707,
7,3,31,12,6,5,3,4,8,8,8,8,6,5,3,1,8,8,8,8,5,9,6,8,12,2,19,11,0,0,1,1.148,
7,3,31,13,5,6,7,2,8,8,8,8,5,6,7,4,8,8,8,8,5,9,6,19,17,2,7,8,0,1,0,13.294,
7,3,31,14,2,4,5,6,8,8,8,8,2,4,5,6,8,8,8,8,9,16,19,13,6,4,20,2,1,1,1,0.729,
7,3,31,15,4,1,6,3,8,8,8,8,4,1,6,2,8,8,8,8,12,2,18,16,13,9,17,14,0,0,1,0.579,
7,3,31,16,2,6,4,3,8,8,8,8,2,6,4,3,8,8,8,8,15,9,6,16,18,2,4,1,1,0,0,0.631,
7,3,31,17,1,7,6,5,8,8,8,8,1,7,6,5,8,8,8,8,4,19,17,6,2,10,3,7,1,1,1,0.741,
7,3,31,18,3,4,1,5,8,8,8,8,3,4,1,5,8,8,8,8,11,8,12,15,17,6,2,20,1,1,1,0.377,
7,3,31,19,3,2,7,1,8,8,8,8,3,2,7,1,8,8,8,8,11,15,19,1,14,3,7,18,1,1,1,0.368,
7,3,31,20,5,3,4,6,8,8,8,8,5,3,4,2,8,8,8,8,19,20,9,3,5,14,15,18,0,1,0,0.538,
7,3,31,21,2,1,7,5,8,8,8,8,2,1,7,5,8,8,8,8,8,16,5,4,6,20,11,10,1,1,1,0.569,
7,3,31,22,2,3,6,7,8,8,8,8,2,3,6,7,8,8,8,8,8,12,5,14,18,16,4,10,1,1,1,0.42,
7,3,31,23,3,7,4,6,8,8,8,8,3,7,4,6,8,8,8,8,19,14,9,7,1,15,12,6,1,1,1,0.41,
7,3,31,24,6,7,4,5,8,8,8,8,6,7,4,2,8,8,8,8,5,12,6,17,14,19,10,3,0,0,1,0.585,
7,3,31,25,4,6,3,5,8,8,8,8,4,6,3,5,8,8,8,8,20,14,6,10,15,17,16,13,1,1,1,0.581,
7,3,31,26,5,4,1,7,8,8,8,8,5,4,1,3,8,8,8,8,10,18,12,3,7,20,13,19,0,0,1,0.472,
7,3,31,27,1,5,2,6,8,8,8,8,1,5,2,6,8,8,8,8,20,4,18,1,13,12,9,8,1,1,1,0.622,
7,3,31,28,7,2,5,6,8,8,8,8,7,2,5,1,8,8,8,8,5,18,14,19,17,20,16,11,0,0,1,0.728,
7,3,31,29,4,5,7,2,8,8,8,8,4,5,7,1,8,8,8,8,19,14,16,13,18,9,11,1,0,0,1,0.784,
7,3,31,30,6,4,1,3,8,8,8,8,6,4,1,7,8,8,8,8,19,11,4,14,5,1,15,7,0,0,1,0.839,
7,3,31,31,5,7,6,1,8,8,8,8,5,7,6,3,8,8,8,8,15,6,12,9,5,14,8,11,0,1,0,0.648,
7,3,31,32,1,5,6,7,8,8,8,8,1,5,6,7,8,8,8,8,16,13,10,1,5,4,2,19,1,1,1,0.576,
7,3,31,33,5,1,2,3,8,8,8,8,5,1,2,7,8,8,8,8,2,5,10,6,19,11,13,18,0,1,0,0.676,
7,3,31,34,4,2,1,6,8,8,8,8,4,2,1,6,8,8,8,8,16,10,3,2,14,4,15,13,1,1,1,0.686,
7,3,31,35,4,7,2,1,8,8,8,8,4,7,2,3,8,8,8,8,16,14,17,10,5,7,11,6,0,0,1,0.621,
7,3,31,36,6,1,2,7,8,8,8,8,6,1,2,5,8,8,8,8,15,1,2,4,17,6,3,19,0,0,1,0.603,
7,3,31,37,4,3,2,7,8,8,8,8,4,3,2,7,8,8,8,8,12,7,2,15,6,4,5,10,1,1,1,0.598,
7,3,31,38,7,6,2,3,8,8,8,8,7,6,2,4,8,8,8,8,17,3,19,8,11,14,7,9,0,0,1,0.594,
7,3,31,39,7,5,3,4,8,8,8,8,7,5,3,6,8,8,8,8,15,16,13,3,1,6,8,2,0,0,1,0.585,
7,3,31,40,6,3,5,1,8,8,8,8,6,3,5,4,8,8,8,8,2,20,14,7,10,3,9,1,0,1,0,0.665,
7,1,32,1,3,7,4,6,8,8,8,8,3,7,4,6,8,8,8,8,2,15,14,6,4,16,13,5,1,1,1,0.463,
7,1,32,2,3,6,2,4,8,8,8,8,3,6,2,4,8,8,8,8,20,3,11,2,14,5,15,8,1,1,1,0.383,
7,1,32,3,6,7,4,5,8,8,8,8,6,7,4,2,8,8,8,8,11,17,3,14,8,9,15,4,0,0,1,0.569,
7,1,32,4,7,5,3,4,8,8,8,8,7,5,3,6,8,8,8,8,16,15,3,4,9,17,10,2,0,1,0,0.519,
7,1,32,5,2,5,3,1,8,8,8,8,2,5,3,1,8,8,8,8,13,10,15,16,8,17,14,7,1,1,1,0.406,
7,1,32,6,1,2,5,3,8,8,8,8,1,2,5,3,8,8,8,8,15,8,20,18,1,3,7,10,1,1,1,1.011,
7,1,32,7,1,2,7,4,8,8,8,8,1,2,7,4,8,8,8,8,18,19,14,8,10,1,5,12,1,1,1,0.453,
7,1,32,8,4,1,6,3,8,8,8,8,4,1,6,2,8,8,8,8,12,19,20,2,15,1,9,13,0,1,0,1.713,
7,1,32,9,2,1,7,5,8,8,8,8,2,1,7,5,8,8,8,8,2,16,3,1,12,10,11,13,1,1,1,0.48,
7,1,32,10,7,6,2,3,8,8,8,8,7,6,2,4,8,8,8,8,12,15,18,14,19,10,20,7,0,0,1,0.475,
7,1,32,11,4,6,3,5,8,8,8,8,4,6,3,5,8,8,8,8,17,1,4,10,5,6,16,13,1,1,1,0.387,
7,1,32,12,6,4,1,3,8,8,8,8,6,4,1,7,8,8,8,8,7,9,3,13,6,5,10,18,0,0,1,0.412,
7,1,32,13,7,3,1,2,8,8,8,8,7,3,1,6,8,8,8,8,17,10,5,7,13,19,15,9,0,1,0,0.337,
7,1,32,14,6,5,3,4,8,8,8,8,6,5,3,1,8,8,8,8,16,5,12,6,14,19,8,3,0,0,1,0.352,
7,1,32,15,5,7,6,1,8,8,8,8,5,7,6,3,8,8,8,8,4,15,8,5,14,20,10,9,0,1,0,0.368,
7,1,32,16,3,5,6,7,8,8,8,8,3,5,6,7,8,8,8,8,10,5,6,16,13,18,20,15,1,1,1,0.435,
7,1,32,17,4,2,1,6,8,8,8,8,4,2,1,6,8,8,8,8,6,3,8,15,4,19,7,12,1,1,1,0.3,
7,1,32,18,6,3,5,1,8,8,8,8,6,3,5,4,8,8,8,8,5,13,18,9,14,1,17,2,0,0,1,0.72,
7,1,32,19,6,1,2,7,8,8,8,8,6,1,2,5,8,8,8,8,20,6,2,8,11,19,18,16,0,1,0,0.628,
7,1,32,20,7,1,4,5,8,8,8,8,7,1,4,6,8,8,8,8,20,7,12,16,18,2,9,4,0,1,0,0.467,
7,1,32,21,7,2,5,6,8,8,8,8,7,2,5,1,8,8,8,8,2,1,3,19,16,7,5,6,0,0,1,0.572,
7,1,32,22,5,4,1,7,8,8,8,8,5,4,1,3,8,8,8,8,12,15,6,2,17,16,7,13,0,1,0,0.488,
7,1,32,23,3,2,7,1,8,8,8,8,3,2,7,1,8,8,8,8,12,9,11,14,4,6,3,16,1,1,1,0.498,
7,1,32,24,1,4,3,2,8,8,8,8,1,4,3,2,8,8,8,8,7,18,17,14,15,1,9,6,1,1,1,0.647,
7,1,32,25,1,5,6,7,8,8,8,8,1,5,6,7,8,8,8,8,10,18,4,7,9,5,11,1,1,1,1,0.747,
7,1,32,26,1,7,6,5,8,8,8,8,1,7,6,5,8,8,8,8,1,15,9,11,12,6,18,13,1,1,1,0.444,
7,1,32,27,3,4,1,5,8,8,8,8,3,4,1,5,8,8,8,8,9,2,6,12,20,5,19,3,1,1,1,0.65,
7,1,32,28,4,3,2,7,8,8,8,8,4,3,2,7,8,8,8,8,17,15,6,14,16,20,13,4,1,1,1,0.46,
7,1,32,29,4,5,7,2,8,8,8,8,4,5,7,1,8,8,8,8,4,13,15,16,9,14,12,11,0,0,1,1.07,
7,1,32,30,4,7,2,1,8,8,8,8,4,7,2,3,8,8,8,8,1,18,15,10,4,6,5,13,0,0,1,0.617,
7,1,32,31,5,1,2,3,8,8,8,8,5,1,2,7,8,8,8,8,15,11,2,10,17,13,5,14,0,1,0,0.713,
7,1,32,32,2,3,1,4,8,8,8,8,2,3,1,4,8,8,8,8,9,17,2,8,4,10,12,15,1,1,1,0.423,
7,1,32,33,2,3,6,7,8,8,8,8,2,3,6,7,8,8,8,8,9,3,4,2,8,20,12,10,1,1,1,0.594,
7,1,32,34,7,4,6,1,8,8,8,8,7,4,6,5,8,8,8,8,2,6,7,13,5,8,10,18,0,0,1,0.525,
7,1,32,35,2,4,5,6,8,8,8,8,2,4,5,6,8,8,8,8,12,6,17,4,11,7,3,15,1,1,1,0.666,
7,1,32,36,5,6,7,2,8,8,8,8,5,6,7,4,8,8,8,8,5,15,14,8,13,1,17,10,0,0,1,0.616,
7,1,32,37,1,5,2,6,8,8,8,8,1,5,2,6,8,8,8,8,18,1,2,14,13,16,8,17,1,1,1,0.517,
7,1,32,38,2,6,4,3,8,8,8,8,2,6,4,3,8,8,8,8,3,13,9,8,19,6,14,4,1,1,1,30.776,
7,1,32,39,5,3,4,6,8,8,8,8,5,3,4,2,8,8,8,8,11,1,5,6,19,16,4,8,0,0,1,2.138,
7,1,32,40,5,2,3,4,8,8,8,8,5,2,3,7,8,8,8,8,11,19,5,8,20,13,16,2,0,0,1,0.739,
7,4,33,1,1,2,3,4,4,5,6,6,1,2,3,4,4,5,6,6,5,11,18,14,4,2,20,12,1,1,1,1.089,
7,4,33,2,1,2,2,3,3,4,5,7,6,2,2,3,3,4,5,7,14,18,12,9,11,3,6,1,0,1,0,0.39,
7,4,33,3,1,2,2,3,5,6,7,7,1,1,2,3,5,6,7,7,18,3,8,19,1,15,7,12,0,0,1,0.588,
7,4,33,4,1,2,2,3,3,4,5,7,1,2,2,3,3,4,5,7,16,1,7,6,3,2,11,15,1,1,1,0.569,
7,4,33,5,1,2,2,3,4,5,5,6,1,2,2,3,4,5,5,6,4,20,15,14,18,8,1,10,1,1,1,0.819,
7,4,33,6,2,2,3,4,5,6,7,7,2,2,3,4,6,6,7,7,20,19,9,12,6,16,5,17,0,1,0,0.663,
7,4,33,7,1,1,2,3,3,5,5,7,1,1,2,3,3,5,5,7,2,20,14,19,11,13,5,10,1,1,1,0.533,
7,4,33,8,1,2,2,3,4,6,7,7,1,2,2,3,4,5,7,7,17,1,14,13,4,16,5,11,0,0,1,0.866,
7,4,33,9,1,1,2,2,4,5,6,7,1,1,2,2,4,5,6,7,4,14,20,8,9,15,1,13,1,1,1,0.472,
7,4,33,10,1,1,2,2,3,4,6,7,1,1,2,2,3,4,5,7,14,3,8,6,13,19,1,16,0,0,1,0.496,
7,4,33,11,1,1,3,3,4,4,5,7,1,1,3,3,4,4,5,7,16,20,4,12,6,17,3,10,1,1,1,0.76,
7,4,33,12,1,1,2,2,3,4,7,7,1,1,2,2,3,4,7,7,7,5,10,6,13,8,12,2,1,1,1,0.405,
7,4,33,13,3,3,4,4,5,5,6,7,3,3,7,4,5,5,6,7,14,6,19,5,2,15,13,18,0,1,0,0.629,
7,4,33,14,2,3,4,4,5,5,6,6,7,3,4,4,5,5,6,6,19,16,15,6,2,13,3,20,0,1,0,0.864,
7,4,33,15,1,2,3,4,5,5,6,6,1,2,3,4,5,5,6,6,14,20,9,7,11,10,8,15,1,1,1,0.395,
7,4,33,16,1,1,2,3,3,4,5,7,1,1,2,3,3,4,5,7,13,3,8,12,6,9,17,10,1,1,1,0.435,
7,4,33,17,1,3,4,5,5,6,6,7,2,3,4,5,5,6,6,7,16,9,14,12,1,6,19,17,0,1,0,0.333,
7,4,33,18,2,3,3,4,4,5,6,7,1,3,3,4,4,5,6,7,20,7,3,15,5,1,10,6,0,1,0,0.409,
7,4,33,19,1,2,2,3,4,4,6,6,1,2,2,3,4,4,6,6,15,17,18,13,7,6,11,4,1,1,1,0.523,
7,4,33,20,1,1,2,4,5,6,6,7,1,1,2,4,5,6,6,7,7,4,8,12,16,11,10,19,1,1,1,0.648,
7,4,33,21,1,1,2,3,4,6,7,7,1,1,2,3,4,6,7,7,1,10,5,2,14,11,16,20,1,1,1,0.478,
7,4,33,22,1,1,2,3,3,4,5,6,1,1,2,3,3,4,5,6,5,10,15,14,7,8,2,12,1,1,1,0.523,
7,4,33,23,1,2,3,3,4,6,6,7,1,2,3,3,5,6,6,7,17,14,5,15,19,9,4,8,0,1,0,0.463,
7,4,33,24,1,2,2,3,5,5,7,7,1,2,2,4,5,5,7,7,1,10,17,13,6,18,9,8,0,0,1,0.971,
7,4,33,25,1,1,2,2,3,4,5,7,1,1,2,2,3,4,5,7,20,1,3,16,14,8,19,9,1,1,1,0.447,
7,4,33,26,2,2,3,4,5,6,6,7,2,5,3,4,5,6,6,7,13,8,9,7,3,12,20,5,0,1,0,1.157,
7,4,33,27,2,3,4,5,5,6,6,7,1,3,4,5,5,6,6,7,9,11,13,5,10,17,7,18,0,0,1,0.572,
7,4,33,28,3,4,5,5,6,6,7,7,3,4,4,5,6,6,7,7,3,4,1,6,15,9,20,7,0,1,0,0.617,
7,4,33,29,1,3,4,5,5,6,7,7,1,3,4,1,5,6,7,7,5,6,18,9,12,20,17,7,0,0,1,0.457,
7,4,33,30,1,2,3,5,5,6,6,7,1,4,3,5,5,6,6,7,11,12,14,19,1,13,18,9,0,0,1,0.511,
7,4,33,31,1,2,4,4,5,5,7,7,1,2,3,4,5,5,7,7,12,14,19,3,11,7,9,8,0,1,0,0.915,
7,4,33,32,3,3,4,4,5,6,6,7,5,3,4,4,5,6,6,7,9,20,10,4,11,13,17,5,0,0,1,0.994,
7,4,33,33,1,1,2,4,4,5,6,7,1,1,2,4,4,5,6,7,13,9,3,20,7,1,16,10,1,0,0,1.238,
7,4,33,34,1,2,2,3,4,5,5,6,1,2,2,3,4,5,5,6,9,14,11,18,10,4,1,7,1,0,0,0.809,
7,4,33,35,1,3,4,4,5,6,7,7,1,3,4,3,5,6,7,7,9,14,6,12,20,7,1,10,0,1,0,0.585,
7,4,33,36,1,2,3,4,5,5,6,6,1,2,3,4,5,5,6,6,7,17,6,9,10,12,8,4,1,1,1,1.273,
7,4,33,37,1,1,3,4,5,6,7,7,1,1,3,4,5,6,7,7,1,6,12,3,18,17,8,11,1,0,0,0.514,
7,4,33,38,1,2,3,4,4,5,7,7,1,2,3,4,4,6,7,7,11,3,19,14,8,4,17,5,0,0,1,0.733,
7,4,33,39,1,1,2,3,6,6,7,7,1,1,2,3,6,6,7,7,12,20,7,1,19,4,10,9,1,1,1,0.519,
7,4,33,40,1,1,2,3,4,6,6,7,1,1,2,3,4,6,6,7,19,7,16,20,1,3,5,10,1,1,1,0.494,
7,2,34,1,1,2,3,4,4,5,7,7,1,2,3,4,4,6,7,7,1,2,20,4,5,9,7,12,0,1,0,0.668,
7,2,34,2,1,3,4,5,5,6,6,7,2,3,4,5,5,6,6,7,20,10,5,7,16,3,2,6,0,0,1,0.663,
7,2,34,3,1,2,2,3,4,6,7,7,1,2,2,3,4,5,7,7,4,11,10,9,6,14,16,7,0,0,1,0.707,
7,2,34,4,1,2,2,3,5,6,7,7,1,1,2,3,5,6,7,7,20,12,14,16,13,1,18,4,0,0,1,0.623,
7,2,34,5,1,2,2,3,3,4,5,7,1,2,2,3,3,4,5,7,9,12,14,4,3,6,10,11,1,1,1,0.536,
7,2,34,6,1,1,2,3,4,6,6,7,1,1,2,3,4,6,6,7,12,17,1,2,11,16,15,6,1,1,1,0.681,
7,2,34,7,1,2,2,3,5,5,7,7,1,2,2,4,5,5,7,7,17,4,8,15,11,18,16,13,0,0,1,0.751,
7,2,34,8,1,3,4,4,5,6,7,7,1,3,4,3,5,6,7,7,16,9,2,1,14,5,20,3,0,1,0,0.957,
7,2,34,9,1,2,2,3,4,5,5,6,1,2,2,3,4,5,5,6,17,13,18,7,19,3,8,15,1,0,0,0.702,
7,2,34,10,1,2,3,3,4,6,6,7,1,2,3,3,5,6,6,7,16,6,18,1,12,5,11,7,0,0,1,0.737,
7,2,34,11,1,1,2,2,4,5,6,7,1,1,2,2,4,5,6,7,20,18,2,4,12,5,15,17,1,0,0,1.191,
7,2,34,12,1,2,2,3,3,4,5,7,6,2,2,3,3,4,5,7,1,5,8,10,3,11,12,19,0,1,0,0.716,
7,2,34,13,2,3,4,5,5,6,6,7,1,3,4,5,5,6,6,7,19,17,16,6,3,12,15,13,0,0,1,0.802,
7,2,34,14,1,1,3,4,5,6,7,7,1,1,3,4,5,6,7,7,18,1,16,14,19,17,8,11,1,1,1,1.239,
7,2,34,15,1,1,2,2,3,4,7,7,1,1,2,2,3,4,7,7,2,5,8,11,3,20,6,7,1,1,1,0.47,
7,2,34,16,1,1,2,3,6,6,7,7,1,1,2,3,6,6,7,7,14,12,8,3,6,20,1,16,1,1,1,0.585,
7,2,34,17,2,3,4,4,5,5,6,6,7,3,4,4,5,5,6,6,14,9,15,3,5,1,13,6,0,1,0,0.605,
7,2,34,18,1,1,2,3,3,4,5,7,1,1,2,3,3,4,5,7,1,12,14,8,11,15,3,6,1,1,1,0.534,
7,2,34,19,1,1,2,4,5,6,6,7,1,1,2,4,5,6,6,7,20,17,2,16,13,6,4,12,1,1,1,0.469,
7,2,34,20,1,1,2,3,3,4,5,6,1,1,2,3,3,4,5,6,16,20,7,15,2,13,12,18,1,1,1,0.579,
7,2,34,21,1,3,4,5,5,6,7,7,1,3,4,1,5,6,7,7,7,20,11,16,2,3,6,13,0,0,1,0.673,
7,2,34,22,1,1,2,2,3,4,6,7,1,1,2,2,3,4,5,7,18,3,5,14,2,6,20,9,0,0,1,0.743,
7,2,34,23,1,1,2,2,3,4,5,7,1,1,2,2,3,4,5,7,4,10,5,12,14,19,13,17,1,1,1,0.663,
7,2,34,24,3,4,5,5,6,6,7,7,3,4,4,5,6,6,7,7,8,15,10,11,18,17,5,9,0,1,0,0.449,
7,2,34,25,1,1,2,3,3,5,5,7,1,1,2,3,3,5,5,7,5,4,13,6,2,1,7,18,1,1,1,0.723,
7,2,34,26,1,2,2,3,4,5,5,6,1,2,2,3,4,5,5,6,19,20,15,1,5,4,2,8,1,1,1,0.623,
7,2,34,27,2,2,3,4,5,6,7,7,2,2,3,4,6,6,7,7,6,13,2,9,14,8,7,15,0,1,0,0.474,
7,2,34,28,1,2,3,5,5,6,6,7,1,4,3,5,5,6,6,7,16,13,12,14,1,7,19,5,0,1,0,0.349,
7,2,34,29,1,2,2,3,4,4,6,6,1,2,2,3,4,4,6,6,11,1,4,2,10,7,8,13,1,1,1,0.38,
7,2,34,30,1,2,3,4,4,5,6,6,1,2,3,4,4,5,6,6,5,13,3,11,17,10,12,2,1,1,1,0.383,
7,2,34,31,1,1,2,4,4,5,6,7,1,1,2,4,4,5,6,7,8,11,18,20,10,17,13,6,1,1,1,0.348,
7,2,34,32,3,3,4,4,5,5,6,7,3,3,7,4,5,5,6,7,16,6,18,19,15,3,14,20,0,1,0,0.348,
7,2,34,33,1,1,3,3,4,4,5,7,1,1,3,3,4,4,5,7,2,8,14,1,18,7,6,3,1,1,1,0.383,
7,2,34,34,2,3,3,4,4,5,6,7,1,3,3,4,4,5,6,7,17,13,7,4,3,14,15,18,0,0,1,0.563,
7,2,34,35,1,2,4,4,5,5,7,7,1,2,3,4,5,5,7,7,5,10,7,14,3,11,17,20,0,1,0,0.512,
7,2,34,36,3,3,4,4,5,6,6,7,5,3,4,4,5,6,6,7,8,20,12,17,18,5,1,15,0,1,0,0.478,
7,2,34,37,1,2,3,4,5,5,6,6,1,2,3,4,5,5,6,6,13,19,8,7,6,2,16,11,1,1,1,0.328,
7,2,34,38,1,1,2,3,4,6,7,7,1,1,2,3,4,6,7,7,6,11,12,14,15,17,1,18,1,1,1,0.313,
7,2,34,39,1,2,3,4,5,5,6,6,1,2,3,4,5,5,6,6,18,12,6,10,2,7,5,19,1,1,1,0.382,
7,2,34,40,2,2,3,4,5,6,6,7,2,5,3,4,5,6,6,7,16,11,19,3,7,18,9,17,0,1,0,0.337,
8,4,1,1,2,2,3,4,5,6,7,7,2,2,3,4,6,6,7,7,12,18,13,9,1,5,11,19,0,0,1,0.284,
8,4,1,2,1,3,4,5,5,6,7,7,1,3,4,1,5,6,7,7,7,16,19,12,9,20,13,8,0,0,1,0.595,
8,4,1,3,2,2,3,4,5,6,6,7,2,5,3,4,5,6,6,7,12,5,15,16,3,10,2,19,0,0,1,0.636,
8,4,1,4,1,1,2,2,4,5,6,7,1,1,2,2,4,5,6,7,14,16,19,17,13,10,7,11,1,1,1,0.622,
8,4,1,5,1,1,2,4,5,6,6,7,1,1,2,4,5,6,6,7,4,16,6,12,15,7,20,11,1,1,1,0.745,
8,4,1,6,3,3,4,4,5,5,6,7,3,3,7,4,5,5,6,7,5,13,17,10,20,1,19,3,0,1,0,1.001,
8,4,1,7,1,2,3,4,5,5,6,6,1,2,3,4,5,5,6,6,17,6,12,9,1,4,5,19,1,0,0,1.351,
8,4,1,8,1,2,2,3,4,6,7,7,1,2,2,3,4,5,7,7,17,11,15,18,9,12,1,8,0,0,1,0.716,
8,4,1,9,1,1,2,3,3,4,5,6,1,1,2,3,3,4,5,6,2,12,16,17,15,13,20,14,1,1,1,0.484,
8,4,1,10,1,2,2,3,4,5,5,6,1,2,2,3,4,5,5,6,4,14,11,15,10,18,9,19,1,1,1,1.505,
8,4,1,11,1,2,2,3,5,5,7,7,1,2,2,4,5,5,7,7,13,2,4,11,15,12,10,8,0,0,1,0.728,
8,4,1,12,1,2,3,4,4,5,6,6,1,2,3,4,4,5,6,6,4,8,6,20,2,17,14,16,1,1,1,0.945,
8,4,1,13,3,3,4,4,5,6,6,7,5,3,4,4,5,6,6,7,1,18,4,9,10,12,16,15,0,1,0,1.316,
8,4,1,14,1,1,2,2,3,4,5,7,1,1,2,2,3,4,5,7,5,9,3,13,7,14,8,11,1,0,0,0.766,
8,4,1,15,1,2,2,3,4,5,5,6,1,2,2,3,4,5,5,6,16,11,14,4,2,5,10,20,1,1,1,0.676,
8,4,1,16,1,1,2,4,4,5,6,7,1,1,2,4,4,5,6,7,7,18,6,17,10,12,8,13,1,1,1,0.685,
8,4,1,17,2,3,4,5,5,6,6,7,1,3,4,5,5,6,6,7,13,5,20,9,1,7,12,16,0,1,0,1.099,
8,4,1,18,1,2,2,3,5,6,7,7,1,1,2,3,5,6,7,7,14,4,12,8,20,2,13,6,0,0,1,0.484,
8,4,1,19,1,2,2,3,3,4,5,7,6,2,2,3,3,4,5,7,8,2,19,7,12,15,14,13,0,1,0,0.686,
8,4,1,20,1,3,4,5,5,6,6,7,2,3,4,5,5,6,6,7,17,7,14,12,8,13,4,2,0,0,1,1.335,
8,4,1,21,1,1,2,3,4,6,6,7,1,1,2,3,4,6,6,7,12,6,11,4,5,10,14,1,1,1,1,0.653,
8,4,1,22,1,2,2,3,4,4,6,6,1,2,2,3,4,4,6,6,20,12,16,18,2,13,1,10,1,1,1,0.785,
8,4,1,23,1,2,3,5,5,6,6,7,1,4,3,5,5,6,6,7,5,8,3,12,7,18,17,9,0,0,1,1.24,
8,4,1,24,1,1,2,3,3,4,5,7,1,1,2,3,3,4,5,7,6,19,18,16,14,8,10,11,1,0,0,0.923,
8,4,1,25,1,1,3,3,4,4,5,7,1,1,3,3,4,4,5,7,18,15,17,6,9,4,3,8,1,1,1,0.667,
8,4,1,26,1,2,3,4,5,5,6,6,1,2,3,4,5,5,6,6,16,19,1,15,2,20,4,9,1,1,1,0.701,
8,4,1,27,1,1,3,4,5,6,7,7,1,1,3,4,5,6,7,7,13,3,19,10,4,15,17,2,1,1,1,0.764,
8,4,1,28,1,2,3,3,4,6,6,7,1,2,3,3,5,6,6,7,12,20,7,1,17,8,5,6,0,1,0,0.748,
8,4,1,29,1,2,3,4,4,5,7,7,1,2,3,4,4,6,7,7,11,2,9,3,6,18,1,17,0,1,0,0.657,
8,4,1,30,1,1,2,3,3,5,5,7,1,1,2,3,3,5,5,7,19,10,14,9,18,11,3,16,1,1,1,0.656,
8,4,1,31,1,3,4,4,5,6,7,7,1,3,4,3,5,6,7,7,20,18,2,6,1,3,9,5,0,0,1,0.662,
8,4,1,32,1,2,2,3,3,4,5,7,1,2,2,3,3,4,5,7,4,11,13,9,8,6,1,19,1,1,1,0.644,
8,4,1,33,1,1,2,2,3,4,7,7,1,1,2,2,3,4,7,7,5,20,7,11,17,16,8,2,1,1,1,0.591,
8,4,1,34,3,4,5,5,6,6,7,7,3,4,4,5,6,6,7,7,13,4,12,11,18,15,6,7,0,1,0,0.772,
8,4,1,35,1,1,2,3,6,6,7,7,1,1,2,3,6,6,7,7,6,7,2,13,12,1,15,11,1,1,1,0.651,
8,4,1,36,1,1,2,2,3,4,6,7,1,1,2,2,3,4,5,7,10,11,5,18,6,20,13,14,0,0,1,0.685,
8,4,1,37,1,2,4,4,5,5,7,7,1,2,3,4,5,5,7,7,14,9,8,3,4,13,6,18,0,1,0,0.842,
8,4,1,38,1,1,2,3,4,6,7,7,1,1,2,3,4,6,7,7,14,12,13,7,15,20,11,5,1,1,1,0.64,
8,4,1,39,2,3,3,4,4,5,6,7,1,3,3,4,4,5,6,7,9,8,15,13,11,6,17,18,0,0,1,0.583,
8,4,1,40,2,3,4,4,5,5,6,6,7,3,4,4,5,5,6,6,12,11,5,19,13,17,2,3,0,1,0,0.701,
8,3,2,1,7,4,6,1,8,8,8,8,7,4,6,5,8,8,8,8,17,6,13,3,7,18,1,15,0,0,1,0.63,
8,3,2,2,5,6,7,2,8,8,8,8,5,6,7,4,8,8,8,8,9,20,10,2,8,12,4,17,0,1,0,0.476,
8,3,2,3,5,1,2,3,8,8,8,8,5,1,2,7,8,8,8,8,12,17,1,16,5,4,2,10,0,1,0,0.995,
8,3,2,4,5,2,3,4,8,8,8,8,5,2,3,7,8,8,8,8,8,6,3,13,20,1,12,16,0,0,1,0.706,
8,3,2,5,2,3,1,4,8,8,8,8,2,3,1,4,8,8,8,8,8,4,2,6,19,15,10,3,1,1,1,0.83,
8,3,2,6,7,6,2,3,8,8,8,8,7,6,2,4,8,8,8,8,7,2,12,4,20,11,15,10,0,0,1,1.12,
8,3,2,7,5,3,4,6,8,8,8,8,5,3,4,2,8,8,8,8,5,1,4,13,10,8,9,11,0,0,1,1.389,
8,3,2,8,2,4,5,6,8,8,8,8,2,4,5,6,8,8,8,8,18,3,10,19,1,5,13,20,1,1,1,0.56,
8,3,2,9,4,3,2,7,8,8,8,8,4,3,2,7,8,8,8,8,4,8,15,16,12,18,11,2,1,1,1,0.675,
8,3,2,10,1,5,2,6,8,8,8,8,1,5,2,6,8,8,8,8,12,15,3,9,8,2,18,16,1,1,1,0.407,
8,3,2,11,1,2,5,3,8,8,8,8,1,2,5,3,8,8,8,8,12,20,9,11,10,19,16,7,1,1,1,0.667,
8,3,2,12,4,7,2,1,8,8,8,8,4,7,2,3,8,8,8,8,8,18,19,6,5,7,2,16,0,0,1,0.779,
8,3,2,13,6,4,1,3,8,8,8,8,6,4,1,7,8,8,8,8,14,16,17,20,2,19,13,10,0,0,1,0.845,
8,3,2,14,5,7,6,1,8,8,8,8,5,7,6,3,8,8,8,8,7,17,10,18,12,13,16,3,0,1,0,0.891,
8,3,2,15,6,1,2,7,8,8,8,8,6,1,2,5,8,8,8,8,4,19,16,20,15,17,8,11,0,0,1,0.774,
8,3,2,16,2,6,4,3,8,8,8,8,2,6,4,3,8,8,8,8,3,11,13,14,7,20,8,2,1,1,1,0.569,
8,3,2,17,4,2,1,6,8,8,8,8,4,2,1,6,8,8,8,8,18,4,19,1,6,20,14,5,1,1,1,0.686,
8,3,2,18,4,6,3,5,8,8,8,8,4,6,3,5,8,8,8,8,11,19,20,15,10,16,13,14,1,1,1,0.492,
8,3,2,19,1,5,6,7,8,8,8,8,1,5,6,7,8,8,8,8,7,10,4,17,6,18,19,5,1,1,1,1.245,
8,3,2,20,4,5,7,2,8,8,8,8,4,5,7,1,8,8,8,8,19,8,13,20,11,15,16,18,0,1,0,0.535,
8,3,2,21,2,5,3,1,8,8,8,8,2,5,3,1,8,8,8,8,2,10,11,4,17,12,19,16,1,1,1,0.501,
8,3,2,22,1,7,6,5,8,8,8,8,1,7,6,5,8,8,8,8,10,11,18,9,5,16,7,17,1,1,1,0.635,
8,3,2,23,2,3,6,7,8,8,8,8,2,3,6,7,8,8,8,8,11,7,19,14,13,17,5,18,1,1,1,0.546,
8,3,2,24,7,5,3,4,8,8,8,8,7,5,3,6,8,8,8,8,15,4,18,17,6,16,11,19,0,1,0,1.327,
8,3,2,25,6,7,4,5,8,8,8,8,6,7,4,2,8,8,8,8,18,14,3,7,11,4,6,10,0,0,1,0.769,
8,3,2,26,6,5,3,4,8,8,8,8,6,5,3,1,8,8,8,8,1,7,3,14,11,8,18,19,0,0,1,0.777,
8,3,2,27,4,1,6,3,8,8,8,8,4,1,6,2,8,8,8,8,13,10,14,16,20,15,2,3,0,1,0,0.821,
8,3,2,28,1,2,7,4,8,8,8,8,1,2,7,4,8,8,8,8,10,18,15,13,19,4,9,2,1,0,0,1.056,
8,3,2,29,1,4,3,2,8,8,8,8,1,4,3,2,8,8,8,8,8,20,10,14,13,16,3,1,1,1,1,0.92,
8,3,2,30,7,3,1,2,8,8,8,8,7,3,1,6,8,8,8,8,8,1,13,2,17,5,6,7,0,0,1,1.085,
8,3,2,31,7,2,5,6,8,8,8,8,7,2,5,1,8,8,8,8,9,2,20,3,8,12,13,15,0,0,1,0.905,
8,3,2,32,2,1,7,5,8,8,8,8,2,1,7,5,8,8,8,8,2,6,15,11,19,12,18,20,1,1,1,0.875,
8,3,2,33,3,7,4,6,8,8,8,8,3,7,4,6,8,8,8,8,8,7,2,17,20,3,16,5,1,1,1,0.767,
8,3,2,34,7,1,4,5,8,8,8,8,7,1,4,6,8,8,8,8,9,6,16,10,15,1,8,5,0,0,1,0.658,
8,3,2,35,3,4,1,5,8,8,8,8,3,4,1,5,8,8,8,8,14,9,18,20,17,7,10,12,1,0,0,1.78,
8,3,2,36,3,5,6,7,8,8,8,8,3,5,6,7,8,8,8,8,8,15,3,17,16,10,19,6,1,1,1,1.191,
8,3,2,37,5,4,1,7,8,8,8,8,5,4,1,3,8,8,8,8,17,11,2,6,13,12,7,19,0,0,1,1.456,
8,3,2,38,3,2,7,1,8,8,8,8,3,2,7,1,8,8,8,8,8,16,2,5,4,12,10,7,1,1,1,0.836,
8,3,2,39,6,3,5,1,8,8,8,8,6,3,5,4,8,8,8,8,18,10,8,5,15,20,7,4,0,0,1,0.773,
8,3,2,40,3,6,2,4,8,8,8,8,3,6,2,4,8,8,8,8,4,5,12,6,8,18,10,2,1,1,1,0.582,
8,2,3,1,1,1,2,3,4,6,6,7,1,1,2,3,4,6,6,7,15,6,11,1,17,7,20,3,1,1,1,1.364,
8,2,3,2,2,3,4,5,5,6,6,7,1,3,4,5,5,6,6,7,14,3,7,17,2,4,19,8,0,0,1,0.67,
8,2,3,3,1,1,2,2,3,4,6,7,1,1,2,2,3,4,5,7,9,6,11,12,8,7,18,14,0,1,0,0.649,
8,2,3,4,1,2,3,4,5,5,6,6,1,2,3,4,5,5,6,6,1,8,3,15,20,2,6,19,1,1,1,1.053,
8,2,3,5,1,2,3,4,4,5,7,7,1,2,3,4,4,6,7,7,2,14,20,15,13,1,10,18,0,1,0,1.643,
8,2,3,6,1,1,3,3,4,4,5,7,1,1,3,3,4,4,5,7,7,8,2,17,11,19,6,14,1,1,1,1.161,
8,2,3,7,2,2,3,4,5,6,6,7,2,5,3,4,5,6,6,7,4,20,19,12,18,13,15,2,0,0,1,0.62,
8,2,3,8,1,2,2,3,4,6,7,7,1,2,2,3,4,5,7,7,8,11,15,3,14,9,10,12,0,0,1,0.699,
8,2,3,9,1,3,4,5,5,6,6,7,2,3,4,5,5,6,6,7,7,13,2,6,18,17,8,20,0,0,1,1.048,
8,2,3,10,2,3,4,4,5,5,6,6,7,3,4,4,5,5,6,6,9,5,19,1,17,8,20,15,0,1,0,1.053,
8,2,3,11,1,1,2,3,4,6,7,7,1,1,2,3,4,6,7,7,6,10,5,12,13,19,3,14,1,1,1,0.699,
8,2,3,12,1,1,2,3,3,4,5,7,1,1,2,3,3,4,5,7,3,13,1,19,10,17,7,5,1,1,1,1.478,
8,2,3,13,1,3,4,4,5,6,7,7,1,3,4,3,5,6,7,7,3,14,18,11,9,15,1,4,0,0,1,0.671,
8,2,3,14,1,2,2,3,4,5,5,6,1,2,2,3,4,5,5,6,6,2,9,4,10,14,8,3,1,1,1,0.922,
8,2,3,15,1,1,3,4,5,6,7,7,1,1,3,4,5,6,7,7,20,14,7,16,4,10,6,3,1,1,1,1.109,
8,2,3,16,1,2,4,4,5,5,7,7,1,2,3,4,5,5,7,7,11,17,12,20,18,8,16,10,0,1,0,0.67,
8,2,3,17,1,2,3,3,4,6,6,7,1,2,3,3,5,6,6,7,3,18,6,20,9,2,10,4,0,0,1,0.69,
8,2,3,18,1,2,2,3,5,6,7,7,1,1,2,3,5,6,7,7,10,11,5,9,6,18,20,16,0,0,1,0.777,
8,2,3,19,1,2,2,3,4,4,6,6,1,2,2,3,4,4,6,6,18,2,13,9,6,12,1,8,1,1,1,1.406,
8,2,3,20,1,2,2,3,3,4,5,7,1,2,2,3,3,4,5,7,20,14,16,19,8,7,13,9,1,1,1,0.62,
8,2,3,21,1,2,2,3,4,5,5,6,1,2,2,3,4,5,5,6,10,1,15,5,20,12,14,13,1,0,0,0.496,
8,2,3,22,1,2,2,3,5,5,7,7,1,2,2,4,5,5,7,7,14,7,6,12,11,20,18,10,0,0,1,0.778,
8,2,3,23,1,1,2,2,3,4,7,7,1,1,2,2,3,4,7,7,5,11,19,6,8,14,7,17,1,0,0,0.876,
8,2,3,24,3,3,4,4,5,5,6,7,3,3,7,4,5,5,6,7,9,5,17,20,7,10,3,12,0,1,0,0.771,
8,2,3,25,1,1,2,2,3,4,5,7,1,1,2,2,3,4,5,7,3,8,15,9,14,20,12,10,1,1,1,0.747,
8,2,3,26,1,2,3,4,4,5,6,6,1,2,3,4,4,5,6,6,19,8,17,20,4,13,2,11,1,1,1,0.83,
8,2,3,27,1,2,3,5,5,6,6,7,1,4,3,5,5,6,6,7,20,7,14,10,19,1,8,6,0,0,1,0.727,
8,2,3,28,1,2,3,4,5,5,6,6,1,2,3,4,5,5,6,6,11,6,9,10,8,18,14,20,1,1,1,1.029,
8,2,3,29,1,1,2,3,3,5,5,7,1,1,2,3,3,5,5,7,6,17,19,5,15,10,20,8,1,0,0,1.032,
8,2,3,30,2,3,3,4,4,5,6,7,1,3,3,4,4,5,6,7,16,18,3,19,9,12,11,7,0,0,1,0.782,
8,2,3,31,1,2,2,3,3,4,5,7,6,2,2,3,3,4,5,7,1,10,9,12,13,11,4,7,0,1,0,0.835,
8,2,3,32,3,4,5,5,6,6,7,7,3,4,4,5,6,6,7,7,7,1,3,18,14,13,9,6,0,1,0,1.346,
8,2,3,33,1,1,2,3,6,6,7,7,1,1,2,3,6,6,7,7,10,17,20,6,19,13,18,8,1,1,1,1.319,
8,2,3,34,1,1,2,2,4,5,6,7,1,1,2,2,4,5,6,7,17,5,7,13,12,8,18,16,1,1,1,1.81,
8,2,3,35,1,1,2,3,3,4,5,6,1,1,2,3,3,4,5,6,17,6,4,19,18,7,14,1,1,1,1,0.974,
8,2,3,36,3,3,4,4,5,6,6,7,5,3,4,4,5,6,6,7,3,16,15,1,11,6,19,8,0,0,1,1.34,
8,2,3,37,2,2,3,4,5,6,7,7,2,2,3,4,6,6,7,7,20,18,3,11,12,19,6,16,0,0,1,1.332,
8,2,3,38,1,3,4,5,5,6,7,7,1,3,4,1,5,6,7,7,10,5,18,7,3,14,12,15,0,0,1,0.891,
8,2,3,39,1,1,2,4,4,5,6,7,1,1,2,4,4,5,6,7,11,19,1,14,2,4,3,18,1,1,1,0.99,
8,2,3,40,1,1,2,4,5,6,6,7,1,1,2,4,5,6,6,7,2,7,3,13,1,10,6,8,1,1,1,0.708,
8,1,4,1,4,6,3,5,8,8,8,8,4,6,3,5,8,8,8,8,7,2,3,8,11,4,16,1,1,1,1,0.583,
8,1,4,2,2,5,3,1,8,8,8,8,2,5,3,1,8,8,8,8,14,2,16,6,7,20,19,13,1,1,1,0.623,
8,1,4,3,2,3,6,7,8,8,8,8,2,3,6,7,8,8,8,8,17,4,10,2,8,7,20,14,1,1,1,0.638,
8,1,4,4,5,1,2,3,8,8,8,8,5,1,2,7,8,8,8,8,10,13,15,12,2,7,19,6,0,0,1,0.56,
8,1,4,5,1,4,3,2,8,8,8,8,1,4,3,2,8,8,8,8,8,1,17,14,6,4,15,19,1,1,1,1.288,
8,1,4,6,6,7,4,5,8,8,8,8,6,7,4,2,8,8,8,8,18,11,5,4,13,2,12,17,0,1,0,0.782,
8,1,4,7,4,7,2,1,8,8,8,8,4,7,2,3,8,8,8,8,6,15,20,2,4,10,8,1,0,0,1,1.242,
8,1,4,8,7,5,3,4,8,8,8,8,7,5,3,6,8,8,8,8,11,9,6,13,17,1,4,15,0,0,1,1.288,
8,1,4,9,3,6,2,4,8,8,8,8,3,6,2,4,8,8,8,8,16,11,13,20,12,1,18,4,1,1,1,1.06,
8,1,4,10,4,5,7,2,8,8,8,8,4,5,7,1,8,8,8,8,15,19,14,10,18,16,7,11,0,0,1,0.812,
8,1,4,11,3,7,4,6,8,8,8,8,3,7,4,6,8,8,8,8,15,3,11,4,2,18,20,16,1,1,1,0.829,
8,1,4,12,1,5,6,7,8,8,8,8,1,5,6,7,8,8,8,8,5,7,13,9,17,10,20,19,1,0,0,0.852,
8,1,4,13,1,5,2,6,8,8,8,8,1,5,2,6,8,8,8,8,18,8,4,11,2,10,3,7,1,0,0,0.828,
8,1,4,14,7,4,6,1,8,8,8,8,7,4,6,5,8,8,8,8,16,12,6,8,7,1,2,15,0,1,0,0.88,
8,1,4,15,7,1,4,5,8,8,8,8,7,1,4,6,8,8,8,8,14,15,16,6,3,2,19,5,0,0,1,0.672,
8,1,4,16,7,2,5,6,8,8,8,8,7,2,5,1,8,8,8,8,20,10,5,14,12,18,6,16,0,0,1,0.724,
8,1,4,17,2,4,5,6,8,8,8,8,2,4,5,6,8,8,8,8,15,9,6,5,16,7,2,13,1,0,0,0.889,
8,1,4,18,5,3,4,6,8,8,8,8,5,3,4,2,8,8,8,8,4,11,12,17,19,20,3,5,0,0,1,0.886,
8,1,4,19,5,4,1,7,8,8,8,8,5,4,1,3,8,8,8,8,19,13,8,5,11,9,7,15,0,1,0,0.662,
8,1,4,20,3,4,1,5,8,8,8,8,3,4,1,5,8,8,8,8,15,16,3,18,5,12,19,6,1,1,1,1.415,
8,1,4,21,4,2,1,6,8,8,8,8,4,2,1,6,8,8,8,8,19,3,20,2,12,1,5,8,1,1,1,0.795,
8,1,4,22,2,6,4,3,8,8,8,8,2,6,4,3,8,8,8,8,7,9,12,11,6,18,10,1,1,1,1,0.811,
8,1,4,23,7,3,1,2,8,8,8,8,7,3,1,6,8,8,8,8,12,11,5,20,18,16,3,8,0,1,0,1.47,
8,1,4,24,5,2,3,4,8,8,8,8,5,2,3,7,8,8,8,8,7,11,17,1,18,6,12,15,0,0,1,1.171,
8,1,4,25,5,6,7,2,8,8,8,8,5,6,7,4,8,8,8,8,20,6,2,14,1,15,4,5,0,0,1,1.185,
8,1,4,26,7,6,2,3,8,8,8,8,7,6,2,4,8,8,8,8,15,6,11,10,17,20,8,9,0,0,1,0.812,
8,1,4,27,6,5,3,4,8,8,8,8,6,5,3,1,8,8,8,8,2,6,11,7,20,4,14,1,0,1,0,0.769,
8,1,4,28,1,2,7,4,8,8,8,8,1,2,7,4,8,8,8,8,13,1,11,5,17,4,3,19,1,1,1,0.681,
8,1,4,29,6,1,2,7,8,8,8,8,6,1,2,5,8,8,8,8,14,11,5,16,18,10,7,9,0,0,1,0.686,
8,1,4,30,4,1,6,3,8,8,8,8,4,1,6,2,8,8,8,8,16,20,5,12,13,11,4,15,0,0,1,1.22,
8,1,4,31,1,7,6,5,8,8,8,8,1,7,6,5,8,8,8,8,3,9,7,13,16,20,4,18,1,1,1,1.09,
8,1,4,32,5,7,6,1,8,8,8,8,5,7,6,3,8,8,8,8,16,4,7,19,12,10,18,3,0,1,0,1.028,
8,1,4,33,6,3,5,1,8,8,8,8,6,3,5,4,8,8,8,8,9,18,3,11,2,17,19,4,0,0,1,0.774,
8,1,4,34,4,3,2,7,8,8,8,8,4,3,2,7,8,8,8,8,3,12,9,14,8,4,16,5,1,1,1,0.834,
8,1,4,35,3,2,7,1,8,8,8,8,3,2,7,1,8,8,8,8,18,3,12,1,11,10,16,17,1,1,1,0.794,
8,1,4,36,1,2,5,3,8,8,8,8,1,2,5,3,8,8,8,8,12,2,5,19,20,3,14,16,1,1,1,0.508,
8,1,4,37,2,3,1,4,8,8,8,8,2,3,1,4,8,8,8,8,12,2,4,10,5,6,11,17,1,1,1,1.314,
8,1,4,38,2,1,7,5,8,8,8,8,2,1,7,5,8,8,8,8,5,9,19,12,7,3,8,11,1,1,1,0.765,
8,1,4,39,3,5,6,7,8,8,8,8,3,5,6,7,8,8,8,8,10,14,1,15,13,2,5,18,1,1,1,0.755,
8,1,4,40,6,4,1,3,8,8,8,8,6,4,1,7,8,8,8,8,6,19,9,14,15,20,12,18,0,0,1,0.526,
9,1,11,1,5,2,3,4,8,8,8,8,5,2,3,7,8,8,8,8,11,6,5,7,17,19,13,4,0,0,1,0.756,
9,1,11,2,1,2,5,3,8,8,8,8,1,2,5,3,8,8,8,8,15,19,7,4,17,9,20,18,1,1,1,0.555,
9,1,11,3,6,4,1,3,8,8,8,8,6,4,1,7,8,8,8,8,19,17,14,11,5,13,4,9,0,0,1,0.631,
9,1,11,4,2,3,1,4,8,8,8,8,2,3,1,4,8,8,8,8,14,17,4,13,12,8,15,20,1,1,1,0.596,
9,1,11,5,7,2,5,6,8,8,8,8,7,2,5,1,8,8,8,8,18,19,4,5,1,14,15,8,0,0,1,0.494,
9,1,11,6,3,6,2,4,8,8,8,8,3,6,2,4,8,8,8,8,8,5,10,9,7,20,4,17,1,1,1,0.637,
9,1,11,7,5,7,6,1,8,8,8,8,5,7,6,3,8,8,8,8,11,7,15,8,12,3,17,13,0,0,1,0.707,
9,1,11,8,6,3,5,1,8,8,8,8,6,3,5,4,8,8,8,8,1,16,3,10,13,12,20,9,0,1,0,1.18,
9,1,11,9,4,2,1,6,8,8,8,8,4,2,1,6,8,8,8,8,8,1,13,6,18,3,16,7,1,1,1,0.59,
9,1,11,10,3,2,7,1,8,8,8,8,3,2,7,1,8,8,8,8,1,20,4,8,6,18,19,16,1,1,1,0.64,
9,1,11,11,4,5,7,2,8,8,8,8,4,5,7,1,8,8,8,8,14,6,4,15,11,9,16,7,0,0,1,0.462,
9,1,11,12,5,4,1,7,8,8,8,8,5,4,1,3,8,8,8,8,12,7,8,11,13,18,5,19,0,0,1,0.513,
9,1,11,13,7,1,4,5,8,8,8,8,7,1,4,6,8,8,8,8,3,12,16,18,8,5,4,6,0,1,0,0.683,
9,1,11,14,3,7,4,6,8,8,8,8,3,7,4,6,8,8,8,8,11,18,20,10,4,13,7,19,1,1,1,0.565,
9,1,11,15,5,1,2,3,8,8,8,8,5,1,2,7,8,8,8,8,14,15,17,19,9,6,10,5,0,0,1,0.628,
9,1,11,16,7,4,6,1,8,8,8,8,7,4,6,5,8,8,8,8,16,3,17,13,10,12,15,20,0,0,1,0.727,
9,1,11,17,7,3,1,2,8,8,8,8,7,3,1,6,8,8,8,8,5,4,2,14,3,6,20,15,0,1,0,0.771,
9,1,11,18,5,6,7,2,8,8,8,8,5,6,7,4,8,8,8,8,10,1,17,7,2,12,11,19,0,0,1,5.927,
9,1,11,19,3,5,6,7,8,8,8,8,3,5,6,7,8,8,8,8,10,20,5,16,1,7,15,19,1,0,0,0.673,
9,1,11,20,1,5,6,7,8,8,8,8,1,5,6,7,8,8,8,8,7,17,9,19,15,2,5,20,1,1,1,0.565,
9,1,11,21,4,3,2,7,8,8,8,8,4,3,2,7,8,8,8,8,4,12,7,17,15,19,3,13,1,1,1,0.426,
9,1,11,22,1,2,7,4,8,8,8,8,1,2,7,4,8,8,8,8,19,16,7,11,18,10,9,3,1,0,0,1.028,
9,1,11,23,6,7,4,5,8,8,8,8,6,7,4,2,8,8,8,8,11,16,20,5,3,6,18,13,0,1,0,0.538,
9,1,11,24,1,7,6,5,8,8,8,8,1,7,6,5,8,8,8,8,12,3,5,9,2,8,17,11,1,1,1,0.672,
9,1,11,25,4,6,3,5,8,8,8,8,4,6,3,5,8,8,8,8,4,6,19,7,1,3,9,2,1,1,1,0.669,
9,1,11,26,2,1,7,5,8,8,8,8,2,1,7,5,8,8,8,8,19,9,11,12,5,18,13,1,1,0,0,0.719,
9,1,11,27,2,6,4,3,8,8,8,8,2,6,4,3,8,8,8,8,9,3,19,13,8,12,7,15,1,1,1,0.612,
9,1,11,28,5,3,4,6,8,8,8,8,5,3,4,2,8,8,8,8,17,20,18,12,13,10,11,8,0,0,1,0.757,
9,1,11,29,3,4,1,5,8,8,8,8,3,4,1,5,8,8,8,8,16,8,15,7,4,9,14,10,1,1,1,0.568,
9,1,11,30,2,5,3,1,8,8,8,8,2,5,3,1,8,8,8,8,10,15,13,7,18,3,4,2,1,1,1,0.551,
9,1,11,31,1,5,2,6,8,8,8,8,1,5,2,6,8,8,8,8,20,4,7,15,16,6,8,19,1,1,1,0.59,
9,1,11,32,6,1,2,7,8,8,8,8,6,1,2,5,8,8,8,8,11,15,20,12,4,16,13,18,0,0,1,0.545,
